{
    "id": "mrp-submit-obs",
    "resourceType": "Parameters",
    "parameter": [
        {
            "name": "measure-report",
            "resource": {
                "resourceType": "MeasureReport",
                "id": "datax-measurereport02",
                "meta": {
                    "versionId": "1",
                    "lastUpdated": "2018-09-05T16:59:53.000+00:00",
                    "profile": [
                        "http://hl7.org/fhir/us/davinci-deqm/StructureDefinition/datax-measurereport-deqm"
                    ]
                },
                "text": {
                    "status": "generated",
                    "div": "<div xmlns=\"http://www.w3.org/1999/xhtml\"><p><b>Generated Narrative with Details</b></p><p><b>id</b>: datax-measurereport02</p><p><b>meta</b>: </p><p><b>status</b>: complete</p><p><b>type</b>: </p><p><b>measure</b>: <a href=\"Measure-measure-mrp.html\">Generated Summary: id: measure-mrp; url: http://hl7.org/fhir/us/davinci-deqm/Measure/measure-mrp; status: active; date: Oct 3, 2019, 2:54:52 AM; <span title=\"Codes: {urn:iso:std:iso:3166 US}\">United States of America</span></a></p><p><b>patient</b>: <a href=\"Patient-patient02.html\">Generated Summary: id: patient02; Medical record number = 23456 (USUAL); active; Darien Bernard (OFFICIAL); gender: male; birthDate: Jun 13, 1967; <span title=\"Codes: {http://terminology.hl7.org/CodeSystem/v3-MaritalStatus M}\">Married</span></a></p><p><b>date</b>: Sep 5, 2018, 4:59:52 PM</p><p><b>reportingOrganization</b>: <a href=\"Organization-organization01.html\">Generated Summary: id: organization01; Tax ID number = 123456789 (OFFICIAL); active; <span title=\"Codes: {http://terminology.hl7.org/CodeSystem/organization-type prov}\">Healthcare Provider</span>; name: DaVinciHospital01; ph: (+1) 401-555-1212</a></p><p><b>period</b>: Aug 1, 2018, 12:00:00 AM --&gt; Sep 1, 2018, 12:00:00 AM</p><p><b>evaluatedResource</b>:  <a href=\"Observation-observation01.html\">Generated Summary: id: observation01; status: final; active; code: Medication Reconciliation (Details : {http://www.ama-assn.org/go/cpt code '1111F' = '1111F', given as 'Medication Reconciliation'}); value: true</a></p></div>"
                },
                "status": "complete",
                "type": "data-collection",
                "measure": "http://hl7.org/fhir/us/davinci-deqm/Measure/measure-mrp-example",
                "subject": {
                    "reference": "Patient/patient02"
                },
                "date": "2018-09-05T16:59:52.404Z",
                "reporter": {
                    "reference": "Organization/organization01"
                },
                "period": {
                    "start": "2018-08-01",
                    "end": "2018-09-01"
                },
                "evaluatedResource": [
                    {
                        "reference": "Observation/observation01"
                    }
                ]
            }
        },
        {
            "name": "resource",
            "resource": {
                "resourceType": "Patient",
                "id": "patient01",
                "meta": {
                    "versionId": "5",
                    "lastUpdated": "2019-02-11T14:19:25.000+00:00",
                    "profile": [
                        "http://hl7.org/fhir/us/qicore/StructureDefinition/qicore-patient"
                    ]
                },
                "text": {
                    "status": "generated",
                    "div": "<div xmlns=\"http://www.w3.org/1999/xhtml\"><div class=\"hapiHeaderText\">Jairo <b>WEBSTER </b></div><table class=\"hapiPropertyTable\"><tbody><tr><td>Identifier</td><td>12345</td></tr><tr><td>Address</td><td><span>7496 Beaver Ridge Ave </span><br/><span>Thornton </span><span>NJ </span><span>USA </span></td></tr><tr><td>Date of birth</td><td><span>16 December 1946</span></td></tr></tbody></table></div>"
                },
                "extension": [
                    {
                        "url": "http://hl7.org/fhir/us/core/StructureDefinition/us-core-birthsex",
                        "valueCode": "M"
                    },
                    {
                        "url": "http://hl7.org/fhir/us/core/StructureDefinition/us-core-race",
                        "extension": [
                            {
                                "url": "ombCategory",
                                "valueCoding": {
                                    "system": "urn:oid:2.16.840.1.113883.6.238",
                                    "code": "2106-3",
                                    "display": "White"
                                }
                            },
                            {
                                "url": "text",
                                "valueString": "White"
                            }
                        ]
                    },
                    {
                        "url": "http://hl7.org/fhir/us/core/StructureDefinition/us-core-ethnicity",
                        "extension": [
                            {
                                "url": "ombCategory",
                                "valueCoding": {
                                    "system": "urn:oid:2.16.840.1.113883.6.238",
                                    "code": "2186-5",
                                    "display": "Not Hispanic or Latino"
                                }
                            },
                            {
                                "url": "text",
                                "valueString": "Not Hispanic or Latino"
                            }
                        ]
                    }
                ],
                "identifier": [
                    {
                        "use": "usual",
                        "type": {
                            "coding": [
                                {
                                    "system": "http://terminology.hl7.org/CodeSystem/v2-0203",
                                    "code": "MR",
                                    "display": "Medical record number"
                                }
                            ]
                        },
                        "system": "http://hospital.davinci.org",
                        "value": "12345"
                    }
                ],
                "active": true,
                "name": [
                    {
                        "use": "official",
                        "family": "Webster",
                        "given": [
                            "Jairo"
                        ]
                    }
                ],
                "gender": "male",
                "birthDate": "1946-12-16",
                "deceasedBoolean": false,
                "address": [
                    {
                        "use": "home",
                        "line": [
                            "7496 Beaver Ridge Ave"
                        ],
                        "city": "Thornton",
                        "state": "NJ",
                        "postalCode": "07003",
                        "country": "USA"
                    }
                ],
                "maritalStatus": {
                    "coding": [
                        {
                            "system": "http://terminology.hl7.org/CodeSystem/v3-MaritalStatus",
                            "code": "M",
                            "display": "Married"
                        }
                    ]
                },
                "communication": [
                    {
                        "language": {
                            "coding": [
                                {
                                    "system": "urn:ietf:bcp:47",
                                    "code": "en-US",
                                    "display": "English (Region=United States)"
                                }
                            ]
                        },
                        "preferred": true
                    }
                ],
                "managingOrganization": {
                    "reference": "Organization/organization01"
                }
            }
        },
        {
            "name": "resource",
            "resource": {
                "resourceType": "Observation",
                "id": "observation01",
                "meta": {
                    "profile": [
                        "http://hl7.org/fhir/us/qicore/StructureDefinition/qicore-observation"
                    ]
                },
                "status": "final",
                "category": [
                    {
                        "coding": [
                            {
                                "system": "http://acme.org/observation-category",
                                "code": "measure",
                                "display": "Measure"
                            }
                        ]
                    }
                ],
                "code": {
                    "coding": [
                        {
                            "system": "http://www.ama-assn.org/go/cpt",
                            "code": "1111F",
                            "display": "Medication Reconciliation"
                        }
                    ]
                },
                "subject": {
                    "reference": "Patient/patient01"
                },
                "encounter": {
                    "reference": "Encounter/Encounter01"
                },
                "effectiveDateTime": "2018-09-29T14:15:04.424Z",
                "issued": "2018-09-29T14:15:04.424Z",
                "performer": [
                    {
                        "reference": "Practitioner/practitioner01"
                    }
                ],
                "valueBoolean": true
            }
        },
        {
            "name": "resource",
            "resource": {
                "id": "practitioner01",
                "meta": {
                    "profile": [
                        "http://hl7.org/fhir/us/qicore/StructureDefinition/qicore-practitioner"
                    ]
                },
                "active": true,
                "gender": "male",
                "identifier": [
                    {
                        "system": "http://hl7.org/fhir/sid/us-npi",
                        "type": {
                            "coding": [
                                {
                                    "code": "PRN",
                                    "display": "Provider number",
                                    "system": "http://terminology.hl7.org/CodeSystem/v2-0203"
                                }
                            ]
                        },
                        "use": "official",
                        "value": "456789123"
                    }
                ],
                "name": [
                    {
                        "family": "Hale",
                        "given": [
                            "Cody"
                        ],
                        "suffix": [
                            "MD"
                        ]
                    }
                ],
                "resourceType": "Practitioner"
            }
        },
        {
            "name": "resource",
            "resource": {
                "resourceType": "Encounter",
                "id": "Encounter01",
                "meta": {
                    "profile": [
                        "http://hl7.org/fhir/us/qicore/StructureDefinition/qicore-encounter"
                    ]
                },
                "status": "finished",
                "class": {
                    "system": "http://terminology.hl7.org/CodeSystem/v3-ActCode",
                    "code": "IMP",
                    "display": "inpatient encounter"
                },
                "type": [
                    {
                        "coding": [
                            {
                                "system": "http://snomed.info/sct",
                                "code": "56876005",
                                "display": "Drug rehabilitation and detoxification"
                            }
                        ]
                    }
                ],
                "subject": {
                    "reference": "Patient/patient01",
                    "display": "Jairo Webster"
                },
                "period": {
                    "start": "2018-05-29T11:00:00-04:00",
                    "end": "2018-05-29T11:00:00-04:00"
                },
                "hospitalization": {
                    "dischargeDisposition": {
                        "coding": [
                            {
                                "system": "http://terminology.hl7.org/CodeSystem/discharge-disposition",
                                "code": "home",
                                "display": "Home"
                            }
                        ]
                    }
                }
            }
        },
        {
            "name": "resource",
            "resource": {
                "id": "coverage01",
                "meta": {
                    "lastUpdated": "2019-02-11T14:19:25.000+00:00",
                    "profile": [
                        "http://hl7.org/fhir/us/davinci-deqm/StructureDefinition/coverage-deqm"
                    ],
                    "versionId": "2"
                },
                "status": "active",
                "beneficiary": {
                    "reference": "Patient/patient01"
                },
                "payor": [
                    {
                        "reference": "Organization/organization04"
                    }
                ],
                "policyHolder": {
                    "reference": "Patient/patient01"
                },
                "relationship": {
                    "coding": [
                        {
                            "code": "self"
                        }
                    ]
                },
                "subscriber": {
                    "reference": "Patient/patient01"
                },
                "subscriberId": "A123456789",
                "resourceType": "Coverage"
            }
        },
        {
            "name": "resource",
            "resource": {
                "resourceType": "Location",
                "id": "location01",
                "meta": {
                    "profile": [
                        "http://hl7.org/fhir/us/qicore/StructureDefinition/qicore-location"
                    ]
                },
                "name": "DaVinciClinic01",
                "address": {
                    "line": [
                        "102 Heritage Dr."
                    ],
                    "city": "Somerset",
                    "state": "NJ",
                    "postalCode": "08873",
                    "country": "USA"
                }
            }
        },
        {
            "name": "resource",
            "resource": {
                "id": "organization01",
                "meta": {
                    "lastUpdated": "2019-02-21T01:47:54.000+00:00",
                    "profile": [
                        "http://hl7.org/fhir/us/davinci-deqm/StructureDefinition/organization-deqm"
                    ],
                    "versionId": "4"
                },
                "active": true,
                "address": [
                    {
                        "city": "Warwick",
                        "country": "USA",
                        "line": [
                            "73 Lakewood Street"
                        ],
                        "postalCode": "02886",
                        "state": "RI"
                    }
                ],
                "identifier": [
                    {
                        "assigner": {
                            "display": "www.irs.gov"
                        },
                        "system": "urn:oid:2.16.840.1.113883.4.2",
                        "type": {
                            "coding": [
                                {
                                    "code": "TAX",
                                    "display": "Tax ID number",
                                    "system": "http://terminology.hl7.org/CodeSystem/v2-0203"
                                }
                            ]
                        },
                        "use": "official",
                        "value": "123456789"
                    }
                ],
                "name": "DaVinciHospital01",
                "telecom": [
                    {
                        "system": "phone",
                        "value": "(+1) 401-555-1212"
                    }
                ],
                "type": [
                    {
                        "coding": [
                            {
                                "code": "prov",
                                "display": "Healthcare Provider",
                                "system": "http://terminology.hl7.org/CodeSystem/organization-type"
                            }
                        ]
                    }
                ],
                "resourceType": "Organization"
            }
        },
        {
            "name": "resource",
            "resource": {
                "id": "organization02",
                "meta": {
                    "lastUpdated": "2019-03-06T19:03:03.000+00:00",
                    "profile": [
                        "http://hl7.org/fhir/us/davinci-deqm/StructureDefinition/organization-deqm"
                    ],
                    "versionId": "3"
                },
                "active": true,
                "address": [
                    {
                        "city": "Englewood",
                        "country": "USA",
                        "line": [
                            "3 Sherwood St."
                        ],
                        "postalCode": "07631",
                        "state": "NJ"
                    }
                ],
                "identifier": [
                    {
                        "assigner": {
                            "display": "www.irs.gov"
                        },
                        "system": "urn:oid:2.16.840.1.113883.4.2",
                        "type": {
                            "coding": [
                                {
                                    "code": "TAX",
                                    "display": "Tax ID number",
                                    "system": "http://terminology.hl7.org/CodeSystem/v2-0203"
                                }
                            ]
                        },
                        "use": "official",
                        "value": "234567891"
                    }
                ],
                "name": "DaVinciHospital02",
                "telecom": [
                    {
                        "system": "phone",
                        "value": "(+1) 551-555-1212"
                    }
                ],
                "type": [
                    {
                        "coding": [
                            {
                                "code": "prov",
                                "display": "Healthcare Provider",
                                "system": "http://terminology.hl7.org/CodeSystem/organization-type"
                            }
                        ]
                    }
                ],
                "resourceType": "Organization"
            }
        },
        {
            "name": "resource",
            "resource": {
                "id": "organization04",
                "meta": {
                    "lastUpdated": "2019-03-06T19:03:03.000+00:00",
                    "profile": [
                        "http://hl7.org/fhir/us/davinci-deqm/StructureDefinition/organization-deqm"
                    ],
                    "versionId": "4"
                },
                "active": true,
                "address": [
                    {
                        "city": "Grand Rapids",
                        "country": "USA",
                        "line": [
                            "160 Glen Eagles Road"
                        ],
                        "postalCode": "49503",
                        "state": "MI"
                    }
                ],
                "identifier": [
                    {
                        "assigner": {
                            "display": "www.irs.gov"
                        },
                        "system": "urn:oid:2.16.840.1.113883.4.2",
                        "type": {
                            "coding": [
                                {
                                    "code": "TAX",
                                    "display": "Tax ID number",
                                    "system": "http://terminology.hl7.org/CodeSystem/v2-0203"
                                }
                            ]
                        },
                        "use": "official",
                        "value": "456789123"
                    }
                ],
                "name": "DVPayer04",
                "telecom": [
                    {
                        "system": "phone",
                        "value": "(+1) 616-555-1212"
                    }
                ],
                "type": [
                    {
                        "coding": [
                            {
                                "code": "ins",
                                "display": "Insurance Company",
                                "system": "http://terminology.hl7.org/CodeSystem/organization-type"
                            }
                        ]
                    }
                ],
                "resourceType": "Organization"
            }
        }
    ]
}
