{
  "resourceType": "Bundle",
  "id": "caregaps-parameters-status-bundle",
  "type": "transaction",
  "entry": [
    {
      "resource": {
        "resourceType": "Patient",
        "id": "caregaps-parameters-status-open",
        "meta": {
          "profile": [
            "http://hl7.org/fhir/us/core/StructureDefinition/us-core-patient"
          ]
        },
        "extension": [
          {
            "url": "http://hl7.org/fhir/us/core/StructureDefinition/us-core-race",
            "extension": [
              {
                "url": "ombCategory",
                "valueCoding": {
                  "system": "urn:oid:2.16.840.1.113883.6.238",
                  "code": "2028-9",
                  "display": "Asian"
                }
              }
            ]
          },
          {
            "url": "http://hl7.org/fhir/us/core/StructureDefinition/us-core-ethnicity",
            "extension": [
              {
                "url": "ombCategory",
                "valueCoding": {
                  "system": "urn:oid:2.16.840.1.113883.6.238",
                  "code": "2135-2",
                  "display": "Hispanic or Latino"
                }
              }
            ]
          }
        ],
        "identifier": [
          {
            "use": "usual",
            "type": {
              "coding": [
                {
                  "system": "http://terminology.hl7.org/CodeSystem/v2-0203",
                  "code": "MR",
                  "display": "Medical Record Number"
                }
              ]
            },
            "system": "http://hospital.smarthealthit.org",
            "value": "999999992"
          }
        ],
        "name": [
          {
            "family": "Blitz",
            "given": [
              "Open"
            ]
          }
        ],
        "gender": "male",
        "birthDate": "1966-01-01"
      },
      "request": {
        "method": "PUT",
        "url": "Patient/caregaps-parameters-status-open"
      }
    },
    {
      "resource": {
        "resourceType": "Encounter",
        "id": "caregaps-parameters-status-open-1",
        "meta": {
          "profile": [
            "http://hl7.org/fhir/us/core/StructureDefinition/us-core-encounter"
          ]
        },
        "status": "finished",
        "class": {
          "system": "http://terminology.hl7.org/CodeSystem/v3-ActCode",
          "code": "AMB",
          "display": "ambulatory"
        },
        "type": [
          {
            "coding": [
              {
                "system": "http://www.ama-assn.org/go/cpt",
                "code": "99201",
                "display": "Office or other outpatient visit for the evaluation and management of a new patient, which requires these 3 key components: A problem focused history; A problem focused examination; Straightforward medical decision making. Counseling and/or coordination of care with other physicians, other qualified health care professionals, or agencies are provided consistent with the nature of the problem(s) and the patient's and/or family's needs. Usually, the presenting problem(s) are self limited or minor. Typically, 10 minutes are spent face-to-face with the patient and/or family."
              }
            ]
          }
        ],
        "subject": {
          "reference": "Patient/caregaps-parameters-status-open"
        },
        "period": {
          "start": "2019-05-30T00:00:00.0-06:00",
          "end": "2019-05-31T00:00:00.0-06:00"
        }
      },
      "request": {
        "method": "PUT",
        "url": "Encounter/caregaps-parameters-status-open-1"
      }
    },
    {
      "resource": {
        "resourceType": "Practitioner",
        "id": "caregaps-parameters-status-open-1",
        "meta": {
          "profile": [
            "http://hl7.org/fhir/us/davinci-deqm/StructureDefinition/practitioner-deqm"
          ]
        },
        "identifier": [
          {
            "assigner": {
              "display": "www.cms.gov"
            },
            "system": "http://hl7.org/fhir/sid/us-npi",
            "type": {
              "coding": [
                {
                  "code": "PRN",
                  "display": "Provider number",
                  "system": "http://terminology.hl7.org/CodeSystem/v2-0203"
                }
              ]
            },
            "use": "official",
            "value": "345678912"
          },
          {
            "assigner": {
              "display": "www.cms.gov"
            },
            "system": "urn:oid:2.16.840.1.113883.4.336",
            "type": {
              "coding": [
                {
                  "code": "PRN",
                  "display": "Provider number",
                  "system": "http://terminology.hl7.org/CodeSystem/v2-0203"
                }
              ]
            },
            "use": "secondary",
            "value": "082583"
          }
        ],
        "name": [
          {
            "family": "Gene",
            "given": [
              "Ronald"
            ],
            "prefix": [
              "Dr"
            ]
          }
        ],
        "address": [
          {
            "use": "home",
            "line": [
              "1003 Healthcare Drive"
            ],
            "city": "Amherst",
            "state": "MA",
            "postalCode": "01002"
          }
        ]
      },
      "request": {
        "method": "PUT",
        "url": "Practitioner/caregaps-parameters-status-open-1"
      }
    },
    {
      "resource": {
        "resourceType": "Organization",
        "id": "caregaps-parameters-status-open-1",
        "meta": {
          "profile": [
            "http://hl7.org/fhir/us/davinci-deqm/StructureDefinition/organization-deqm"
          ]
        },
        "active": true,
        "address": [
          {
            "city": "Grand Rapids",
            "country": "USA",
            "line": [
              "160 Glen Eagles Road"
            ],
            "postalCode": "49503",
            "state": "MI"
          }
        ],
        "identifier": [
          {
            "assigner": {
              "display": "www.irs.gov"
            },
            "system": "urn:oid:2.16.840.1.113883.4.4",
            "type": {
              "coding": [
                {
                  "code": "TAX",
                  "display": "Tax ID number",
                  "system": "http://terminology.hl7.org/CodeSystem/v2-0203"
                }
              ]
            },
            "use": "official",
            "value": "456789123"
          }
        ],
        "name": "caregaps-parameters-status-open-organization",
        "telecom": [
          {
            "system": "phone",
            "value": "(+1) 616-555-1212"
          }
        ],
        "type": [
          {
            "coding": [
              {
                "code": "ins",
                "display": "Insurance Company",
                "system": "http://terminology.hl7.org/CodeSystem/organization-type"
              }
            ]
          }
        ]
      },
      "request": {
        "method": "PUT",
        "url": "Organization/caregaps-parameters-status-open-1"
      }
    },
    {
      "resource": {
        "resourceType": "Group",
        "id": "caregaps-parameters-status-open-1",
        "type": "person",
        "actual": true,
        "member": [
          {
            "entity": {
              "reference": "Patient/caregaps-parameters-standard"
            }
          },
          {
            "entity": {
              "reference": "Patient/caregaps-parameters-status-open"
            }
          }
        ]
      },
      "request": {
        "method": "PUT",
        "url": "Group/caregaps-parameters-status-open-1"
      }
    },
    {
      "resource": {
        "resourceType": "Patient",
        "id": "caregaps-parameters-status-not-in-ip",
        "meta": {
          "profile": [
            "http://hl7.org/fhir/us/core/StructureDefinition/us-core-patient"
          ]
        },
        "extension": [
          {
            "url": "http://hl7.org/fhir/us/core/StructureDefinition/us-core-race",
            "extension": [
              {
                "url": "ombCategory",
                "valueCoding": {
                  "system": "urn:oid:2.16.840.1.113883.6.238",
                  "code": "2028-9",
                  "display": "Asian"
                }
              }
            ]
          },
          {
            "url": "http://hl7.org/fhir/us/core/StructureDefinition/us-core-ethnicity",
            "extension": [
              {
                "url": "ombCategory",
                "valueCoding": {
                  "system": "urn:oid:2.16.840.1.113883.6.238",
                  "code": "2135-2",
                  "display": "Hispanic or Latino"
                }
              }
            ]
          }
        ],
        "identifier": [
          {
            "use": "usual",
            "type": {
              "coding": [
                {
                  "system": "http://terminology.hl7.org/CodeSystem/v2-0203",
                  "code": "MR",
                  "display": "Medical Record Number"
                }
              ]
            },
            "system": "http://hospital.smarthealthit.org",
            "value": "999999992"
          }
        ],
        "name": [
          {
            "family": "Blitz",
            "given": [
              "Open"
            ]
          }
        ],
        "gender": "male",
        "birthDate": "1966-01-01"
      },
      "request": {
        "method": "PUT",
        "url": "Patient/caregaps-parameters-status-not-in-ip"
      }
    },
    {
      "resource": {
        "resourceType": "Practitioner",
        "id": "caregaps-parameters-status-not-in-ip-1",
        "meta": {
          "profile": [
            "http://hl7.org/fhir/us/davinci-deqm/StructureDefinition/practitioner-deqm"
          ]
        },
        "identifier": [
          {
            "assigner": {
              "display": "www.cms.gov"
            },
            "system": "http://hl7.org/fhir/sid/us-npi",
            "type": {
              "coding": [
                {
                  "code": "PRN",
                  "display": "Provider number",
                  "system": "http://terminology.hl7.org/CodeSystem/v2-0203"
                }
              ]
            },
            "use": "official",
            "value": "345678912"
          },
          {
            "assigner": {
              "display": "www.cms.gov"
            },
            "system": "urn:oid:2.16.840.1.113883.4.336",
            "type": {
              "coding": [
                {
                  "code": "PRN",
                  "display": "Provider number",
                  "system": "http://terminology.hl7.org/CodeSystem/v2-0203"
                }
              ]
            },
            "use": "secondary",
            "value": "082583"
          }
        ],
        "name": [
          {
            "family": "Gene",
            "given": [
              "Ronald"
            ],
            "prefix": [
              "Dr"
            ]
          }
        ],
        "address": [
          {
            "use": "home",
            "line": [
              "1003 Healthcare Drive"
            ],
            "city": "Amherst",
            "state": "MA",
            "postalCode": "01002"
          }
        ]
      },
      "request": {
        "method": "PUT",
        "url": "Practitioner/caregaps-parameters-status-not-in-ip-1"
      }
    },
    {
      "resource": {
        "resourceType": "Organization",
        "id": "caregaps-parameters-status-not-in-ip-1",
        "meta": {
          "profile": [
            "http://hl7.org/fhir/us/davinci-deqm/StructureDefinition/organization-deqm"
          ]
        },
        "active": true,
        "address": [
          {
            "city": "Grand Rapids",
            "country": "USA",
            "line": [
              "160 Glen Eagles Road"
            ],
            "postalCode": "49503",
            "state": "MI"
          }
        ],
        "identifier": [
          {
            "assigner": {
              "display": "www.irs.gov"
            },
            "system": "urn:oid:2.16.840.1.113883.4.4",
            "type": {
              "coding": [
                {
                  "code": "TAX",
                  "display": "Tax ID number",
                  "system": "http://terminology.hl7.org/CodeSystem/v2-0203"
                }
              ]
            },
            "use": "official",
            "value": "456789123"
          }
        ],
        "name": "caregaps-parameters-status-not-in-ip-organization",
        "telecom": [
          {
            "system": "phone",
            "value": "(+1) 616-555-1212"
          }
        ],
        "type": [
          {
            "coding": [
              {
                "code": "ins",
                "display": "Insurance Company",
                "system": "http://terminology.hl7.org/CodeSystem/organization-type"
              }
            ]
          }
        ]
      },
      "request": {
        "method": "PUT",
        "url": "Organization/caregaps-parameters-status-not-in-ip-1"
      }
    },
    {
      "resource": {
        "resourceType": "Group",
        "id": "caregaps-parameters-status-not-in-ip-1",
        "type": "person",
        "actual": true,
        "member": [
          {
            "entity": {
              "reference": "Patient/caregaps-parameters-standard"
            }
          },
          {
            "entity": {
              "reference": "Patient/caregaps-parameters-status-not-in-ip"
            }
          }
        ]
      },
      "request": {
        "method": "PUT",
        "url": "Group/caregaps-parameters-status-not-in-ip-1"
      }
    }
  ]
}
