{
   "id": "multiple-indv-mrp-obs-report",
   "entry": [
      {
         "fullUrl": "http://example.org/fhir/receiver/Observation/observation03",
         "request": {
            "method": "POST",
            "url": "Observation"
         },
         "resource": {
            "id": "observation03",
            "meta": {
               "profile": [
                  "http://hl7.org/fhir/us/qicore/StructureDefinition/qicore-observation"
               ],
               "source": "http://example.org/fhir/server"
            },
            "category": [
               {
                  "coding": [
                     {
                        "code": "measure",
                        "display": "Measure",
                        "system": "http://example.org/CodeSystem/observation-category"
                     }
                  ]
               }
            ],
            "code": {
               "coding": [
                  {
                     "code": "1111F",
                     "display": "Medication Reconciliation",
                     "system": "http://www.ama-assn.org/go/cpt"
                  }
               ]
            },
            "effectiveDateTime": "2018-09-30T14:15:04.424Z",
            "encounter": {
               "reference": "Encounter/encounter03"
            },
            "issued": "2018-09-30T14:15:04.424Z",
            "performer": [
               {
                  "reference": "Practitioner/practitioner02"
               }
            ],
            "status": "final",
            "subject": {
               "reference": "Patient/patient03"
            },
            "valueBoolean": true,
            "resourceType": "Observation"
         }
      },
      {
         "fullUrl": "http://example.org/fhir/receiver/Encounter/encounter02",
         "request": {
            "method": "POST",
            "url": "Encounter"
         },
         "resource": {
            "id": "encounter02",
            "meta": {
               "profile": [
                  "http://hl7.org/fhir/us/qicore/StructureDefinition/qicore-encounter"
               ],
               "source": "http://example.org/fhir/server"
            },
            "class": {
               "code": "IMP",
               "display": "inpatient encounter",
               "system": "http://terminology.hl7.org/CodeSystem/v3-ActCode"
            },
            "hospitalization": {
               "dischargeDisposition": {
                  "coding": [
                     {
                        "code": "home",
                        "display": "Home",
                        "system": "http://terminology.hl7.org/CodeSystem/discharge-disposition"
                     }
                  ]
               }
            },
            "period": {
               "end": "2018-05-29",
               "start": "2018-05-29"
            },
            "status": "finished",
            "subject": {
               "reference": "Patient/patient02"
            },
            "type": [
               {
                  "coding": [
                     {
                        "code": "239279000",
                        "display": "Fixation of fracture",
                        "system": "http://snomed.info/sct"
                     }
                  ]
               }
            ],
            "resourceType": "Encounter"
         }
      },
      {
         "fullUrl": "http://example.org/fhir/receiver/Organization/organization02",
         "request": {
            "method": "POST",
            "url": "Organization"
         },
         "resource": {
            "id": "organization02",
            "meta": {
               "lastUpdated": "2019-03-06T19:03:03.000+00:00",
               "profile": [
                  "http://hl7.org/fhir/us/qicore/StructureDefinition/qicore-organization"
               ],
               "source": "http://example.org/fhir/server",
               "versionId": "3"
            },
            "active": true,
            "address": [
               {
                  "city": "Englewood",
                  "country": "USA",
                  "line": [
                     "3 Sherwood St."
                  ],
                  "postalCode": "07631",
                  "state": "NJ"
               }
            ],
            "identifier": [
               {
                  "assigner": {
                     "display": "www.irs.gov"
                  },
                  "system": "urn:oid:2.16.840.1.113883.4.4",
                  "type": {
                     "coding": [
                        {
                           "code": "TAX",
                           "display": "Tax ID number",
                           "system": "http://terminology.hl7.org/CodeSystem/v2-0203"
                        }
                     ]
                  },
                  "use": "official",
                  "value": "234567891"
               }
            ],
            "name": "DaVinciHospital02",
            "telecom": [
               {
                  "system": "phone",
                  "value": "(+1) 551-555-1212"
               }
            ],
            "type": [
               {
                  "coding": [
                     {
                        "code": "prov",
                        "display": "Healthcare Provider",
                        "system": "http://terminology.hl7.org/CodeSystem/organization-type"
                     }
                  ]
               }
            ],
            "resourceType": "Organization"
         }
      },
      {
         "fullUrl": "http://example.org/fhir/receiver/Practitioner/practitioner02",
         "request": {
            "method": "POST",
            "url": "Practitioner"
         },
         "resource": {
            "id": "practitioner02",
            "meta": {
               "profile": [
                  "http://hl7.org/fhir/us/qicore/StructureDefinition/qicore-practitioner"
               ],
               "source": "http://example.org/fhir/server"
            },
            "active": true,
            "address": [
               {
                  "extension": [
                     {
                        "extension": [
                           {
                              "url": "latitude",
                              "valueDecimal": 41.791776
                           },
                           {
                              "url": "longitude",
                              "valueDecimal": -72.718832
                           }
                        ],
                        "url": "http://hl7.org/fhir/StructureDefinition/geolocation"
                     }
                  ],
                  "city": "FARMINGTON",
                  "country": "USA",
                  "line": [
                     "UCONN MEDICAL GROUP"
                  ],
                  "postalCode": "060300001",
                  "state": "CT",
                  "text": "UCONN MEDICAL GROUP, FARMINGTON, CT 060300001",
                  "type": "both",
                  "use": "home"
               }
            ],
            "birthDate": "1964-06-19",
            "communication": [
               {
                  "coding": [
                     {
                        "code": "es",
                        "display": "Spanish",
                        "system": "urn:ietf:bcp:47",
                        "userSelected": true
                     }
                  ],
                  "text": "English and Spanish"
               }
            ],
            "gender": "male",
            "identifier": [
               {
                  "assigner": {
                     "display": "www.cms.gov"
                  },
                  "period": {
                     "start": "2005-07-16T09:00:00-05:00"
                  },
                  "system": "http://hl7.org/fhir/sid/us-npi",
                  "type": {
                     "coding": [
                        {
                           "code": "PRN",
                           "display": "Provider number",
                           "system": "http://terminology.hl7.org/CodeSystem/v2-0203"
                        }
                     ]
                  },
                  "use": "official",
                  "value": "9998266512"
               }
            ],
            "name": [
               {
                  "family": "Zieme",
                  "given": [
                     "Emile"
                  ],
                  "suffix": [
                     "M.D."
                  ],
                  "text": "Emile Zieme",
                  "use": "official"
               }
            ],
            "telecom": [
               {
                  "rank": 1,
                  "system": "phone",
                  "use": "work",
                  "value": "8605555555"
               },
               {
                  "rank": 2,
                  "system": "phone",
                  "use": "work",
                  "value": "8605555555"
               }
            ],
            "resourceType": "Practitioner"
         }
      },
      {
         "fullUrl": "http://example.org/fhir/receiver/Organization/organization03",
         "request": {
            "method": "POST",
            "url": "Organization"
         },
         "resource": {
            "id": "organization03",
            "meta": {
               "lastUpdated": "2019-02-21T01:47:53.000+00:00",
               "profile": [
                  "http://hl7.org/fhir/us/qicore/StructureDefinition/qicore-organization"
               ],
               "source": "http://example.org/fhir/server",
               "versionId": "3"
            },
            "active": true,
            "address": [
               {
                  "city": "Union City",
                  "country": "USA",
                  "line": [
                     "94 Olive Ave."
                  ],
                  "postalCode": "07087",
                  "state": "NJ"
               }
            ],
            "identifier": [
               {
                  "assigner": {
                     "display": "www.cms.gov"
                  },
                  "system": "http://hl7.org/fhir/sid/us-npi",
                  "type": {
                     "coding": [
                        {
                           "code": "PRN",
                           "display": "Provider number",
                           "system": "http://terminology.hl7.org/CodeSystem/v2-0203"
                        }
                     ]
                  },
                  "use": "official",
                  "value": "345678912"
               },
               {
                  "assigner": {
                     "display": "www.cms.gov"
                  },
                  "system": "urn:oid:2.16.840.1.113883.4.336",
                  "type": {
                     "coding": [
                        {
                           "code": "PRN",
                           "display": "Provider number",
                           "system": "http://terminology.hl7.org/CodeSystem/v2-0203"
                        }
                     ]
                  },
                  "use": "secondary",
                  "value": "082584"
               }
            ],
            "name": "DaVinciHospital03",
            "telecom": [
               {
                  "system": "phone",
                  "value": "(+1) 201-555-1212"
               }
            ],
            "type": [
               {
                  "coding": [
                     {
                        "code": "prov",
                        "display": "Healthcare Provider",
                        "system": "http://terminology.hl7.org/CodeSystem/organization-type"
                     }
                  ]
               }
            ],
            "resourceType": "Organization"
         }
      },
      {
         "fullUrl": "http://example.org/fhir/receiver/Practitioner/practitioner01",
         "request": {
            "method": "POST",
            "url": "Practitioner"
         },
         "resource": {
            "id": "practitioner01",
            "meta": {
               "profile": [
                  "http://hl7.org/fhir/us/qicore/StructureDefinition/qicore-practitioner"
               ],
               "source": "http://example.org/fhir/server"
            },
            "address": [
               {
                  "city": "Amherst",
                  "line": [
                     "1003 Healthcare Drive"
                  ],
                  "postalCode": "01002",
                  "state": "MA",
                  "use": "home"
               }
            ],
            "identifier": [
               {
                  "assigner": {
                     "display": "www.cms.gov"
                  },
                  "system": "http://hl7.org/fhir/sid/us-npi",
                  "type": {
                     "coding": [
                        {
                           "code": "PRN",
                           "display": "Provider number",
                           "system": "http://terminology.hl7.org/CodeSystem/v2-0203"
                        }
                     ]
                  },
                  "use": "official",
                  "value": "345678912"
               },
               {
                  "assigner": {
                     "display": "www.cms.gov"
                  },
                  "system": "urn:oid:2.16.840.1.113883.4.336",
                  "type": {
                     "coding": [
                        {
                           "code": "PRN",
                           "display": "Provider number",
                           "system": "http://terminology.hl7.org/CodeSystem/v2-0203"
                        }
                     ]
                  },
                  "use": "secondary",
                  "value": "082583"
               }
            ],
            "name": [
               {
                  "family": "Bone",
                  "given": [
                     "Ronald"
                  ],
                  "prefix": [
                     "Dr"
                  ]
               }
            ],
            "resourceType": "Practitioner"
         }
      },
      {
         "fullUrl": "http://example.org/fhir/receiver/Patient/patient03",
         "request": {
            "method": "POST",
            "url": "Patient"
         },
         "resource": {
            "id": "patient03",
            "meta": {
               "lastUpdated": "2019-02-07T18:47:34.000+00:00",
               "profile": [
                  "http://hl7.org/fhir/us/qicore/StructureDefinition/qicore-patient"
               ],
               "source": "http://example.org/fhir/server",
               "versionId": "4"
            },
            "extension": [
               {
                  "url": "http://hl7.org/fhir/us/core/StructureDefinition/us-core-birthsex",
                  "valueCode": "F"
               },
               {
                  "extension": [
                     {
                        "url": "ombCategory",
                        "valueCoding": {
                           "code": "2054-5",
                           "display": "Black or African American",
                           "system": "urn:oid:2.16.840.1.113883.6.238"
                        }
                     },
                     {
                        "url": "text",
                        "valueString": "Black or African American"
                     }
                  ],
                  "url": "http://hl7.org/fhir/us/core/StructureDefinition/us-core-race"
               },
               {
                  "extension": [
                     {
                        "url": "ombCategory",
                        "valueCoding": {
                           "code": "2186-5",
                           "display": "Not Hispanic or Latino",
                           "system": "urn:oid:2.16.840.1.113883.6.238"
                        }
                     },
                     {
                        "url": "text",
                        "valueString": "Not Hispanic or Latino"
                     }
                  ],
                  "url": "http://hl7.org/fhir/us/core/StructureDefinition/us-core-ethnicity"
               }
            ],
            "active": true,
            "address": [
               {
                  "city": "Freehold",
                  "country": "USA",
                  "line": [
                     "213 Lilac Ave."
                  ],
                  "postalCode": "48099",
                  "state": "MI",
                  "use": "home"
               }
            ],
            "birthDate": "1983-09-12",
            "communication": [
               {
                  "language": {
                     "coding": [
                        {
                           "code": "en-US",
                           "display": "English (Region=United States)",
                           "system": "urn:ietf:bcp:47"
                        }
                     ]
                  },
                  "preferred": true
               }
            ],
            "deceasedBoolean": false,
            "gender": "female",
            "identifier": [
               {
                  "system": "http://hospital.davinci.org",
                  "type": {
                     "coding": [
                        {
                           "code": "MR",
                           "display": "Medical record number",
                           "system": "http://terminology.hl7.org/CodeSystem/v2-0203"
                        }
                     ]
                  },
                  "use": "usual",
                  "value": "34567"
               }
            ],
            "managingOrganization": {
               "reference": "Organization/organization03"
            },
            "maritalStatus": {
               "coding": [
                  {
                     "code": "U",
                     "display": "unmarried",
                     "system": "http://terminology.hl7.org/CodeSystem/v3-MaritalStatus"
                  }
               ]
            },
            "name": [
               {
                  "family": "Hartman",
                  "given": [
                     "Virginia"
                  ],
                  "use": "official"
               }
            ],
            "resourceType": "Patient"
         }
      },
      {
         "fullUrl": "http://example.org/fhir/receiver/Encounter/encounter03",
         "request": {
            "method": "POST",
            "url": "Encounter"
         },
         "resource": {
            "id": "encounter03",
            "meta": {
               "profile": [
                  "http://hl7.org/fhir/us/qicore/StructureDefinition/qicore-encounter"
               ],
               "source": "http://example.org/fhir/server"
            },
            "class": {
               "code": "IMP",
               "display": "inpatient encounter",
               "system": "http://terminology.hl7.org/CodeSystem/v3-ActCode"
            },
            "hospitalization": {
               "dischargeDisposition": {
                  "coding": [
                     {
                        "code": "home",
                        "display": "Home",
                        "system": "http://terminology.hl7.org/CodeSystem/discharge-disposition"
                     }
                  ]
               }
            },
            "period": {
               "end": "2018-05-29T11:00:00-04:00",
               "start": "2018-05-29T11:00:00-04:00"
            },
            "status": "finished",
            "subject": {
               "reference": "Patient/patient03"
            },
            "type": [
               {
                  "coding": [
                     {
                        "code": "53950000",
                        "display": "Respiratory therapy",
                        "system": "http://snomed.info/sct"
                     }
                  ]
               }
            ],
            "resourceType": "Encounter"
         }
      },
      {
         "fullUrl": "http://example.org/fhir/receiver/MeasureReport/indv-measurereport02a",
         "request": {
            "method": "POST",
            "url": "MeasureReport"
         },
         "resource": {
            "id": "indv-measurereport02a",
            "meta": {
               "profile": [
                  "http://hl7.org/fhir/us/davinci-deqm/StructureDefinition/indv-measurereport-deqm"
               ],
               "source": "http://example.org/fhir/server"
            },
            "extension": [
               {
                  "url": "http://hl7.org/fhir/us/davinci-deqm/StructureDefinition/extension-measureScoring",
                  "valueCodeableConcept": {
                     "coding": [
                        {
                           "code": "proportion",
                           "system": "http://terminology.hl7.org/CodeSystem/measure-scoring"
                        }
                     ]
                  }
               },
               {
                  "url": "http://hl7.org/fhir/us/davinci-deqm/StructureDefinition/extension-certificationIdentifier",
                  "valueIdentifier": {
                     "system": "urn:oid:2.16.840.1.113883.3.2074.1",
                     "value": "0015HQN9BD3304E"
                  }
               },
               {
                  "url": "http://hl7.org/fhir/us/davinci-deqm/StructureDefinition/extension-reportingVendor",
                  "valueReference": {
                     "reference": "Organization/organization02"
                  }
               }
            ],
            "date": "2018-09-05T16:59:52.404Z",
            "evaluatedResource": [
               {
                  "reference": "Observation/observation02"
               }
            ],
            "group": [
               {
                  "code": {
                     "coding": [
                        {
                           "code": "mrp-group",
                           "display": "MRP Group",
                           "system": "http://example.org/fhir/"
                        }
                     ],
                     "text": "MRP Group"
                  },
                  "measureScore": {
                     "value": 1
                  },
                  "population": [
                     {
                        "id": "initial-population",
                        "code": {
                           "coding": [
                              {
                                 "code": "initial-population",
                                 "display": "Initial Population",
                                 "system": "http://terminology.hl7.org/CodeSystem/measure-population"
                              }
                           ]
                        },
                        "count": 1
                     },
                     {
                        "id": "numerator",
                        "code": {
                           "coding": [
                              {
                                 "code": "numerator",
                                 "display": "Numerator",
                                 "system": "http://terminology.hl7.org/CodeSystem/measure-population"
                              }
                           ]
                        },
                        "count": 1
                     },
                     {
                        "id": "denominator",
                        "code": {
                           "coding": [
                              {
                                 "code": "denominator",
                                 "display": "Denominator",
                                 "system": "http://terminology.hl7.org/CodeSystem/measure-population"
                              }
                           ]
                        },
                        "count": 1
                     }
                  ]
               }
            ],
            "improvementNotation": {
               "coding": [
                  {
                     "code": "increase",
                     "display": "Increased score indicates improvement",
                     "system": "http://terminology.hl7.org/CodeSystem/measure-improvement-notation"
                  }
               ]
            },
            "measure": "http://hl7.org/fhir/us/davinci-deqm/Measure/measure-mrp-example",
            "period": {
               "end": "2018-09-01",
               "start": "2018-08-01"
            },
            "reporter": {
               "reference": "Organization/organization01"
            },
            "status": "complete",
            "subject": {
               "reference": "Patient/patient02"
            },
            "type": "individual",
            "resourceType": "MeasureReport"
         }
      },
      {
         "fullUrl": "http://example.org/fhir/receiver/Observation/observation02",
         "request": {
            "method": "POST",
            "url": "Observation"
         },
         "resource": {
            "id": "observation02",
            "meta": {
               "profile": [
                  "http://hl7.org/fhir/us/qicore/StructureDefinition/qicore-observation"
               ],
               "source": "http://example.org/fhir/server"
            },
            "category": [
               {
                  "coding": [
                     {
                        "code": "measure",
                        "display": "Measure",
                        "system": "http://example.org/CodeSystem/observation-category"
                     }
                  ]
               }
            ],
            "code": {
               "coding": [
                  {
                     "code": "1111F",
                     "display": "Medication Reconciliation",
                     "system": "http://www.ama-assn.org/go/cpt"
                  }
               ]
            },
            "effectiveDateTime": "2018-09-30T14:15:04.424Z",
            "encounter": {
               "reference": "Encounter/encounter02"
            },
            "issued": "2018-09-30T14:15:04.424Z",
            "performer": [
               {
                  "reference": "Practitioner/practitioner02"
               }
            ],
            "status": "final",
            "subject": {
               "reference": "Patient/patient02"
            },
            "valueBoolean": true,
            "resourceType": "Observation"
         }
      },
      {
         "fullUrl": "http://example.org/fhir/receiver/MeasureReport/indv-measurereport02",
         "request": {
            "method": "POST",
            "url": "MeasureReport"
         },
         "resource": {
            "id": "indv-measurereport02",
            "meta": {
               "profile": [
                  "http://hl7.org/fhir/us/davinci-deqm/StructureDefinition/indv-measurereport-deqm"
               ],
               "source": "http://example.org/fhir/server"
            },
            "extension": [
               {
                  "url": "http://hl7.org/fhir/us/davinci-deqm/StructureDefinition/extension-measureScoring",
                  "valueCodeableConcept": {
                     "coding": [
                        {
                           "code": "proportion",
                           "system": "http://terminology.hl7.org/CodeSystem/measure-scoring"
                        }
                     ]
                  }
               },
               {
                  "url": "http://hl7.org/fhir/us/davinci-deqm/StructureDefinition/extension-certificationIdentifier",
                  "valueIdentifier": {
                     "system": "urn:oid:2.16.840.1.113883.3.2074.1",
                     "value": "0015HQN9BD3304E"
                  }
               },
               {
                  "url": "http://hl7.org/fhir/us/davinci-deqm/StructureDefinition/extension-reportingVendor",
                  "valueReference": {
                     "reference": "Organization/organization02"
                  }
               }
            ],
            "date": "2018-09-05T16:59:52.404Z",
            "evaluatedResource": [
               {
                  "reference": "Observation/observation01"
               }
            ],
            "group": [
               {
                  "code": {
                     "coding": [
                        {
                           "code": "mrp-group",
                           "display": "MRP Group",
                           "system": "http://example.org/fhir/"
                        }
                     ],
                     "text": "MRP Group"
                  },
                  "measureScore": {
                     "value": 1
                  },
                  "population": [
                     {
                        "id": "initial-population",
                        "code": {
                           "coding": [
                              {
                                 "code": "initial-population",
                                 "display": "Initial Population",
                                 "system": "http://terminology.hl7.org/CodeSystem/measure-population"
                              }
                           ]
                        },
                        "count": 1
                     },
                     {
                        "id": "numerator",
                        "code": {
                           "coding": [
                              {
                                 "code": "numerator",
                                 "display": "Numerator",
                                 "system": "http://terminology.hl7.org/CodeSystem/measure-population"
                              }
                           ]
                        },
                        "count": 1
                     },
                     {
                        "id": "denominator",
                        "code": {
                           "coding": [
                              {
                                 "code": "denominator",
                                 "display": "Denominator",
                                 "system": "http://terminology.hl7.org/CodeSystem/measure-population"
                              }
                           ]
                        },
                        "count": 1
                     }
                  ]
               }
            ],
            "improvementNotation": {
               "coding": [
                  {
                     "code": "increase",
                     "display": "Increased score indicates improvement",
                     "system": "http://terminology.hl7.org/CodeSystem/measure-improvement-notation"
                  }
               ]
            },
            "measure": "http://hl7.org/fhir/us/davinci-deqm/Measure/measure-mrp-example",
            "period": {
               "end": "2018-09-01",
               "start": "2018-08-01"
            },
            "reporter": {
               "reference": "Organization/organization01"
            },
            "status": "complete",
            "subject": {
               "reference": "Patient/patient01"
            },
            "type": "individual",
            "resourceType": "MeasureReport"
         }
      },
      {
         "fullUrl": "http://example.org/fhir/receiver/Organization/organization01",
         "request": {
            "method": "POST",
            "url": "Organization"
         },
         "resource": {
            "id": "organization01",
            "meta": {
               "lastUpdated": "2019-02-21T01:47:54.000+00:00",
               "profile": [
                  "http://hl7.org/fhir/us/qicore/StructureDefinition/qicore-organization"
               ],
               "source": "http://example.org/fhir/server",
               "versionId": "4"
            },
            "active": true,
            "address": [
               {
                  "city": "Warwick",
                  "country": "USA",
                  "line": [
                     "73 Lakewood Street"
                  ],
                  "postalCode": "02886",
                  "state": "RI"
               }
            ],
            "identifier": [
               {
                  "assigner": {
                     "display": "www.irs.gov"
                  },
                  "system": "urn:oid:2.16.840.1.113883.4.4",
                  "type": {
                     "coding": [
                        {
                           "code": "TAX",
                           "display": "Tax ID number",
                           "system": "http://terminology.hl7.org/CodeSystem/v2-0203"
                        }
                     ]
                  },
                  "use": "official",
                  "value": "123456789"
               }
            ],
            "name": "DaVinciHospital01",
            "telecom": [
               {
                  "system": "phone",
                  "value": "(+1) 401-555-1212"
               }
            ],
            "type": [
               {
                  "coding": [
                     {
                        "code": "prov",
                        "display": "Healthcare Provider",
                        "system": "http://terminology.hl7.org/CodeSystem/organization-type"
                     }
                  ]
               }
            ],
            "resourceType": "Organization"
         }
      },
      {
         "fullUrl": "http://example.org/fhir/receiver/MeasureReport/indv-measurereport02b",
         "request": {
            "method": "POST",
            "url": "MeasureReport"
         },
         "resource": {
            "id": "indv-measurereport02b",
            "meta": {
               "profile": [
                  "http://hl7.org/fhir/us/davinci-deqm/StructureDefinition/indv-measurereport-deqm"
               ],
               "source": "http://example.org/fhir/server"
            },
            "extension": [
               {
                  "url": "http://hl7.org/fhir/us/davinci-deqm/StructureDefinition/extension-measureScoring",
                  "valueCodeableConcept": {
                     "coding": [
                        {
                           "code": "proportion",
                           "system": "http://terminology.hl7.org/CodeSystem/measure-scoring"
                        }
                     ]
                  }
               },
               {
                  "url": "http://hl7.org/fhir/us/davinci-deqm/StructureDefinition/extension-certificationIdentifier",
                  "valueIdentifier": {
                     "system": "urn:oid:2.16.840.1.113883.3.2074.1",
                     "value": "0015HQN9BD3304E"
                  }
               },
               {
                  "url": "http://hl7.org/fhir/us/davinci-deqm/StructureDefinition/extension-reportingVendor",
                  "valueReference": {
                     "reference": "Organization/organization02"
                  }
               }
            ],
            "date": "2018-09-05T16:59:52.404Z",
            "evaluatedResource": [
               {
                  "reference": "Observation/observation03"
               }
            ],
            "group": [
               {
                  "code": {
                     "coding": [
                        {
                           "code": "mrp-group",
                           "display": "MRP Group",
                           "system": "http://example.org/fhir/"
                        }
                     ],
                     "text": "MRP Group"
                  },
                  "measureScore": {
                     "value": 1
                  },
                  "population": [
                     {
                        "id": "initial-population",
                        "code": {
                           "coding": [
                              {
                                 "code": "initial-population",
                                 "display": "Initial Population",
                                 "system": "http://terminology.hl7.org/CodeSystem/measure-population"
                              }
                           ]
                        },
                        "count": 1
                     },
                     {
                        "id": "numerator",
                        "code": {
                           "coding": [
                              {
                                 "code": "numerator",
                                 "display": "Numerator",
                                 "system": "http://terminology.hl7.org/CodeSystem/measure-population"
                              }
                           ]
                        },
                        "count": 1
                     },
                     {
                        "id": "denominator",
                        "code": {
                           "coding": [
                              {
                                 "code": "denominator",
                                 "display": "Denominator",
                                 "system": "http://terminology.hl7.org/CodeSystem/measure-population"
                              }
                           ]
                        },
                        "count": 1
                     }
                  ]
               }
            ],
            "improvementNotation": {
               "coding": [
                  {
                     "code": "increase",
                     "display": "Increased score indicates improvement",
                     "system": "http://terminology.hl7.org/CodeSystem/measure-improvement-notation"
                  }
               ]
            },
            "measure": "http://hl7.org/fhir/us/davinci-deqm/Measure/measure-mrp-example",
            "period": {
               "end": "2018-09-01",
               "start": "2018-08-01"
            },
            "reporter": {
               "reference": "Organization/organization01"
            },
            "status": "complete",
            "subject": {
               "reference": "Patient/patient03"
            },
            "type": "individual",
            "resourceType": "MeasureReport"
         }
      },
      {
         "fullUrl": "http://example.org/fhir/receiver/Encounter/encounter01",
         "request": {
            "method": "POST",
            "url": "Encounter"
         },
         "resource": {
            "id": "encounter01",
            "meta": {
               "profile": [
                  "http://hl7.org/fhir/us/qicore/StructureDefinition/qicore-encounter"
               ],
               "source": "http://example.org/fhir/server"
            },
            "class": {
               "code": "IMP",
               "display": "inpatient encounter",
               "system": "http://terminology.hl7.org/CodeSystem/v3-ActCode"
            },
            "hospitalization": {
               "dischargeDisposition": {
                  "coding": [
                     {
                        "code": "home",
                        "display": "Home",
                        "system": "http://terminology.hl7.org/CodeSystem/discharge-disposition"
                     }
                  ]
               }
            },
            "period": {
               "end": "2018-05-29T11:00:00-04:00",
               "start": "2018-05-29T11:00:00-04:00"
            },
            "status": "finished",
            "subject": {
               "display": "Jairo Webster",
               "reference": "Patient/patient01"
            },
            "type": [
               {
                  "coding": [
                     {
                        "code": "56876005",
                        "display": "Drug rehabilitation and detoxification",
                        "system": "http://snomed.info/sct"
                     }
                  ]
               }
            ],
            "resourceType": "Encounter"
         }
      },
      {
         "fullUrl": "http://example.org/fhir/receiver/Observation/observation01",
         "request": {
            "method": "POST",
            "url": "Observation"
         },
         "resource": {
            "id": "observation01",
            "meta": {
               "profile": [
                  "http://hl7.org/fhir/us/qicore/StructureDefinition/qicore-observation"
               ],
               "source": "http://example.org/fhir/server"
            },
            "category": [
               {
                  "coding": [
                     {
                        "code": "measure",
                        "display": "Measure",
                        "system": "http://example.org/CodeSystem/observation-category"
                     }
                  ]
               }
            ],
            "code": {
               "coding": [
                  {
                     "code": "1111F",
                     "display": "Medication Reconciliation",
                     "system": "http://www.ama-assn.org/go/cpt"
                  }
               ]
            },
            "effectiveDateTime": "2018-09-29T14:15:04.424Z",
            "encounter": {
               "reference": "Encounter/encounter01"
            },
            "issued": "2018-09-29T14:15:04.424Z",
            "performer": [
               {
                  "reference": "Practitioner/practitioner01"
               }
            ],
            "status": "final",
            "subject": {
               "reference": "Patient/patient01"
            },
            "valueBoolean": true,
            "resourceType": "Observation"
         }
      },
      {
         "fullUrl": "http://example.org/fhir/receiver/Patient/patient01",
         "request": {
            "method": "POST",
            "url": "Patient"
         },
         "resource": {
            "id": "patient01",
            "meta": {
               "lastUpdated": "2019-02-11T14:19:25.000+00:00",
               "profile": [
                  "http://hl7.org/fhir/us/qicore/StructureDefinition/qicore-patient"
               ],
               "source": "http://example.org/fhir/server",
               "versionId": "5"
            },
            "extension": [
               {
                  "url": "http://hl7.org/fhir/us/core/StructureDefinition/us-core-birthsex",
                  "valueCode": "M"
               },
               {
                  "extension": [
                     {
                        "url": "ombCategory",
                        "valueCoding": {
                           "code": "2106-3",
                           "display": "White",
                           "system": "urn:oid:2.16.840.1.113883.6.238"
                        }
                     },
                     {
                        "url": "text",
                        "valueString": "White"
                     }
                  ],
                  "url": "http://hl7.org/fhir/us/core/StructureDefinition/us-core-race"
               },
               {
                  "extension": [
                     {
                        "url": "ombCategory",
                        "valueCoding": {
                           "code": "2186-5",
                           "display": "Not Hispanic or Latino",
                           "system": "urn:oid:2.16.840.1.113883.6.238"
                        }
                     },
                     {
                        "url": "text",
                        "valueString": "Not Hispanic or Latino"
                     }
                  ],
                  "url": "http://hl7.org/fhir/us/core/StructureDefinition/us-core-ethnicity"
               }
            ],
            "active": true,
            "address": [
               {
                  "city": "Thornton",
                  "country": "USA",
                  "line": [
                     "7496 Beaver Ridge Ave"
                  ],
                  "postalCode": "07003",
                  "state": "NJ",
                  "use": "home"
               }
            ],
            "birthDate": "1946-12-16",
            "communication": [
               {
                  "language": {
                     "coding": [
                        {
                           "code": "en-US",
                           "display": "English (Region=United States)",
                           "system": "urn:ietf:bcp:47"
                        }
                     ]
                  },
                  "preferred": true
               }
            ],
            "deceasedBoolean": false,
            "gender": "male",
            "identifier": [
               {
                  "system": "http://hospital.davinci.org",
                  "type": {
                     "coding": [
                        {
                           "code": "MR",
                           "display": "Medical record number",
                           "system": "http://terminology.hl7.org/CodeSystem/v2-0203"
                        }
                     ]
                  },
                  "use": "usual",
                  "value": "12345"
               }
            ],
            "managingOrganization": {
               "reference": "Organization/organization01"
            },
            "maritalStatus": {
               "coding": [
                  {
                     "code": "M",
                     "display": "Married",
                     "system": "http://terminology.hl7.org/CodeSystem/v3-MaritalStatus"
                  }
               ]
            },
            "name": [
               {
                  "family": "Webster",
                  "given": [
                     "Jairo"
                  ],
                  "use": "official"
               }
            ],
            "resourceType": "Patient"
         }
      },
      {
         "fullUrl": "http://example.org/fhir/receiver/Patient/patient02",
         "request": {
            "method": "POST",
            "url": "Patient"
         },
         "resource": {
            "id": "patient02",
            "meta": {
               "lastUpdated": "2019-03-06T19:03:03.000+00:00",
               "profile": [
                  "http://hl7.org/fhir/us/qicore/StructureDefinition/qicore-patient"
               ],
               "source": "http://example.org/fhir/server",
               "versionId": "4"
            },
            "extension": [
               {
                  "url": "http://hl7.org/fhir/us/core/StructureDefinition/us-core-birthsex",
                  "valueCode": "M"
               },
               {
                  "extension": [
                     {
                        "url": "ombCategory",
                        "valueCoding": {
                           "code": "2028-9",
                           "display": "Asian",
                           "system": "urn:oid:2.16.840.1.113883.6.238"
                        }
                     },
                     {
                        "url": "text",
                        "valueString": "Asian"
                     }
                  ],
                  "url": "http://hl7.org/fhir/us/core/StructureDefinition/us-core-race"
               },
               {
                  "extension": [
                     {
                        "url": "ombCategory",
                        "valueCoding": {
                           "code": "2186-5",
                           "display": "Not Hispanic or Latino",
                           "system": "urn:oid:2.16.840.1.113883.6.238"
                        }
                     },
                     {
                        "url": "text",
                        "valueString": "Not Hispanic or Latino"
                     }
                  ],
                  "url": "http://hl7.org/fhir/us/core/StructureDefinition/us-core-ethnicity"
               }
            ],
            "active": true,
            "address": [
               {
                  "city": "Lynnwood",
                  "country": "USA",
                  "line": [
                     "6 Rockwell Street"
                  ],
                  "postalCode": "07420",
                  "state": "NJ",
                  "use": "home"
               }
            ],
            "birthDate": "1967-06-13",
            "communication": [
               {
                  "language": {
                     "coding": [
                        {
                           "code": "en-US",
                           "display": "English (Region=United States)",
                           "system": "urn:ietf:bcp:47"
                        }
                     ]
                  },
                  "preferred": true
               }
            ],
            "deceasedBoolean": false,
            "gender": "male",
            "identifier": [
               {
                  "system": "http://hospital.davinci.org",
                  "type": {
                     "coding": [
                        {
                           "code": "MR",
                           "display": "Medical record number",
                           "system": "http://terminology.hl7.org/CodeSystem/v2-0203"
                        }
                     ]
                  },
                  "use": "usual",
                  "value": "23456"
               }
            ],
            "managingOrganization": {
               "reference": "Organization/organization02"
            },
            "maritalStatus": {
               "coding": [
                  {
                     "code": "M",
                     "display": "Married",
                     "system": "http://terminology.hl7.org/CodeSystem/v3-MaritalStatus"
                  }
               ]
            },
            "name": [
               {
                  "family": "Bernard",
                  "given": [
                     "Darien"
                  ],
                  "use": "official"
               }
            ],
            "resourceType": "Patient"
         }
      }
   ],
   "timestamp": "2020-07-08T22:17:14.187160Z",
   "type": "transaction",
   "resourceType": "Bundle"
}