{
    "resourceType": "Bundle",
    "id": "single-gaps-indv-report01",
    "meta": {
        "profile": [
            "http://hl7.org/fhir/us/davinci-deqm/StructureDefinition/gaps-bundle-deqm"
        ]
    },
    "type": "document",
    "identifier": {
        "system": "urn:ietf:rfc:3986",
        "value": "urn:uuid:77f43ef5-8c60-4222-ae58-36969063a093"
    },
    "timestamp": "2020-07-02T13:08:53+00:00",
    "entry": [
        {
            "fullUrl": "Composition/gaps-composition01",
            "resource": {
                "resourceType": "Composition",
                "id": "gaps-composition01",
                "meta": {
                    "profile": [
                        "http://hl7.org/fhir/us/davinci-deqm/StructureDefinition/gaps-composition-deqm"
                    ]
                },
                "status": "final",
                "type": {
                    "coding": [
                        {
                            "system": "http://hl7.org/fhir/us/davinci-deqm/CodeSystem/gaps-doc-type",
                            "code": "gaps-doc",
                            "display": "Gaps in Care Report"
                        }
                    ]
                },
                "subject": {
                    "reference": "Patient/gaps-patient01"
                },
                "date": "2020-07-02T13:08:53+00:00",
                "author": [
                    {
                        "reference": "Organization/gaps-organization-reportingvendor"
                    }
                ],
                "title": "Care Gap Report for patient gaps-patient01",
                "section": [
                    {
                        "title": "Colorectal Cancer Screening",
                        "focus": {
                            "reference": "MeasureReport/gaps-indv-measurereport01"
                        },
                        "entry": [
                            {
                                "reference": "DetectedIssue/gaps-detectedissue01"
                            }
                        ]
                    },
                    {
                        "title": "Cervical Cancer Screening",
                        "focus": {
                            "reference": "MeasureReport/gaps-indv-measurereport02"
                        },
                        "entry": [
                            {
                                "reference": "DetectedIssue/gaps-detectedissue02"
                            }
                        ]
                    }
                ]
            }
        },
        {
            "fullUrl": "MeasureReport/gaps-indv-measurereport01",
            "resource": {
                "resourceType": "MeasureReport",
                "id": "gaps-indv-measurereport01",
                "meta": {
                    "profile": [
                        "http://hl7.org/fhir/us/davinci-deqm/StructureDefinition/gaps-indv-measurereport-deqm"
                    ]
                },
                "extension": [
                    {
                        "url": "http://hl7.org/fhir/us/davinci-deqm/StructureDefinition/extension-measureScoring",
                        "valueCodeableConcept": {
                            "coding": [
                                {
                                    "system": "http://terminology.hl7.org/CodeSystem/measure-scoring",
                                    "code": "proportion"
                                }
                            ]
                        }
                    },
                    {
                        "url": "http://hl7.org/fhir/us/davinci-deqm/StructureDefinition/extension-certificationIdentifier",
                        "valueIdentifier": {
                            "system": "urn:oid:2.16.840.1.113883.3.2074.1",
                            "value": "0015HQN9BD3304E"
                        }
                    },
                    {
                        "url": "http://hl7.org/fhir/us/davinci-deqm/StructureDefinition/extension-reportingVendor",
                        "valueReference": {
                            "reference": "Organization/gaps-organization-reportingvendor"
                        }
                    }
                ],
                "status": "complete",
                "type": "individual",
                "measure": "http://hl7.org/fhir/us/cqfmeasures/Measure/measure-exm130-FHIR",
                "subject": {
                    "reference": "Patient/gaps-patient01"
                },
                "date": "2020-07-02T13:08:52+00:00",
                "reporter": {
                    "reference": "Organization/organization01"
                },
                "period": {
                    "start": "2019-01-01T00:00:00+00:00",
                    "end": "2019-12-31T00:00:00+00:00"
                },
                "improvementNotation": {
                    "coding": [
                        {
                            "system": "http://terminology.hl7.org/CodeSystem/measure-improvement-notation",
                            "code": "increase"
                        }
                    ]
                },
                "group": [
                    {
                        "id": "group-1",
                        "population": [
                            {
                                "code": {
                                    "coding": [
                                        {
                                            "system": "http://terminology.hl7.org/CodeSystem/measure-population",
                                            "code": "initial-population",
                                            "display": "Initial Population"
                                        }
                                    ]
                                },
                                "count": 1
                            },
                            {
                                "code": {
                                    "coding": [
                                        {
                                            "system": "http://terminology.hl7.org/CodeSystem/measure-population",
                                            "code": "numerator",
                                            "display": "Numerator"
                                        }
                                    ]
                                },
                                "count": 0
                            },
                            {
                                "code": {
                                    "coding": [
                                        {
                                            "system": "http://terminology.hl7.org/CodeSystem/measure-population",
                                            "code": "denominator",
                                            "display": "Denominator"
                                        }
                                    ]
                                },
                                "count": 1
                            },
                            {
                                "code": {
                                    "coding": [
                                        {
                                            "system": "http://terminology.hl7.org/CodeSystem/measure-population",
                                            "code": "denominator-exclusion",
                                            "display": "Denominator Exclusion"
                                        }
                                    ]
                                },
                                "count": 0
                            }
                        ],
                        "measureScore": {
                            "value": 0.0
                        }
                    }
                ],
                "evaluatedResource": [
                    {
                        "reference": "Encounter/gaps-encounter01",
                        "extension": [
                            {
                                "url": "http://hl7.org/fhir/us/davinci-deqm/StructureDefinition/extension-populationReference",
                                "valueCodeableConcept": {
                                    "coding": [
                                        {
                                            "system": "http://terminology.hl7.org/CodeSystem/measure-population",
                                            "code": "initial-population"
                                        }
                                    ]
                                }
                            }
                        ]
                    },
                    {
                        "reference": "Patient/gaps-patient01",
                        "extension": [
                            {
                                "url": "http://hl7.org/fhir/us/davinci-deqm/StructureDefinition/extension-populationReference",
                                "valueCodeableConcept": {
                                    "coding": [
                                        {
                                            "system": "http://terminology.hl7.org/CodeSystem/measure-population",
                                            "code": "initial-population"
                                        }
                                    ]
                                }
                            }
                        ]
                    }
                ]
            }
        },
        {
            "fullUrl": "MeasureReport/gaps-indv-measurereport02",
            "resource": {
                "resourceType": "MeasureReport",
                "id": "gaps-indv-measurereport02",
                "meta": {
                    "profile": [
                        "http://hl7.org/fhir/us/davinci-deqm/StructureDefinition/gaps-indv-measurereport-deqm"
                    ]
                },
                "extension": [
                    {
                        "url": "http://hl7.org/fhir/us/davinci-deqm/StructureDefinition/extension-measureScoring",
                        "valueCodeableConcept": {
                            "coding": [
                                {
                                    "system": "http://terminology.hl7.org/CodeSystem/measure-scoring",
                                    "code": "proportion"
                                }
                            ]
                        }
                    },
                    {
                        "url": "http://hl7.org/fhir/us/davinci-deqm/StructureDefinition/extension-certificationIdentifier",
                        "valueIdentifier": {
                            "system": "urn:oid:2.16.840.1.113883.3.2074.1",
                            "value": "0015HQN9BD3304E"
                        }
                    },
                    {
                        "url": "http://hl7.org/fhir/us/davinci-deqm/StructureDefinition/extension-reportingVendor",
                        "valueReference": {
                            "reference": "Organization/gaps-organization-reportingvendor"
                        }
                    }
                ],
                "status": "complete",
                "type": "individual",
                "measure": "http://hl7.org/fhir/us/cqfmeasures/Measure/measure-exm124-FHIR",
                "subject": {
                    "reference": "Patient/gaps-patient01"
                },
                "date": "2020-07-02T13:08:53+00:00",
                "reporter": {
                    "reference": "Organization/organization01"
                },
                "period": {
                    "start": "2019-01-01T00:00:00+00:00",
                    "end": "2019-12-31T00:00:00+00:00"
                },
                "improvementNotation": {
                    "coding": [
                        {
                            "system": "http://terminology.hl7.org/CodeSystem/measure-improvement-notation",
                            "code": "increase"
                        }
                    ]
                },
                "group": [
                    {
                        "id": "group-1",
                        "population": [
                            {
                                "code": {
                                    "coding": [
                                        {
                                            "system": "http://terminology.hl7.org/CodeSystem/measure-population",
                                            "code": "initial-population",
                                            "display": "Initial Population"
                                        }
                                    ]
                                },
                                "count": 1
                            },
                            {
                                "code": {
                                    "coding": [
                                        {
                                            "system": "http://terminology.hl7.org/CodeSystem/measure-population",
                                            "code": "numerator",
                                            "display": "Numerator"
                                        }
                                    ]
                                },
                                "count": 0
                            },
                            {
                                "code": {
                                    "coding": [
                                        {
                                            "system": "http://terminology.hl7.org/CodeSystem/measure-population",
                                            "code": "denominator",
                                            "display": "Denominator"
                                        }
                                    ]
                                },
                                "count": 1
                            },
                            {
                                "code": {
                                    "coding": [
                                        {
                                            "system": "http://terminology.hl7.org/CodeSystem/measure-population",
                                            "code": "denominator-exclusion",
                                            "display": "Denominator Exclusion"
                                        }
                                    ]
                                },
                                "count": 0
                            }
                        ],
                        "measureScore": {
                            "value": 0.0
                        }
                    }
                ],
                "evaluatedResource": [
                    {
                        "reference": "Encounter/gaps-encounter01",
                        "extension": [
                            {
                                "url": "http://hl7.org/fhir/us/davinci-deqm/StructureDefinition/extension-populationReference",
                                "valueCodeableConcept": {
                                    "coding": [
                                        {
                                            "system": "http://terminology.hl7.org/CodeSystem/measure-population",
                                            "code": "initial-population"
                                        }
                                    ]
                                }
                            },
                            {
                                "url": "http://hl7.org/fhir/us/davinci-deqm/StructureDefinition/extension-populationReference",
                                "valueCodeableConcept": {
                                    "coding": [
                                        {
                                            "system": "http://terminology.hl7.org/CodeSystem/measure-population",
                                            "code": "denominator"
                                        }
                                    ]
                                }
                            }
                        ]
                    },
                    {
                        "reference": "Patient/gaps-patient01",
                        "extension": [
                            {
                                "url": "http://hl7.org/fhir/us/davinci-deqm/StructureDefinition/extension-populationReference",
                                "valueCodeableConcept": {
                                    "coding": [
                                        {
                                            "system": "http://terminology.hl7.org/CodeSystem/measure-population",
                                            "code": "initial-population"
                                        }
                                    ]
                                }
                            },
                            {
                                "url": "http://hl7.org/fhir/us/davinci-deqm/StructureDefinition/extension-populationReference",
                                "valueCodeableConcept": {
                                    "coding": [
                                        {
                                            "system": "http://terminology.hl7.org/CodeSystem/measure-population",
                                            "code": "denominator"
                                        }
                                    ]
                                }
                            }
                        ]
                    }
                ]
            }
        },
        {
            "fullUrl": "DetectedIssue/gaps-detectedissue01",
            "resource": {
                "resourceType": "DetectedIssue",
                "id": "gaps-detectedissue01",
                "meta": {
                    "profile": [
                        "http://hl7.org/fhir/us/davinci-deqm/StructureDefinition/gaps-detectedissue-deqm"
                    ]
                },
                "status": "final",
                "code": {
                    "coding": [
                        {
                            "system": "http://terminology.hl7.org/CodeSystem/detectedissue-category",
                            "code": "care-gap",
                            "display": "Gap in Care Detected"
                        }
                    ]
                },
                "patient": {
                    "reference": "Patient/gaps-patient01"
                },
                "evidence": [
                    {
                        "detail": [
                            {
                                "reference": "MeasureReport/gaps-indv-measurereport01"
                            }
                        ]
                    }
                ]
            }
        },
        {
            "fullUrl": "DetectedIssue/gaps-detectedissue02",
            "resource": {
                "resourceType": "DetectedIssue",
                "id": "gaps-detectedissue02",
                "meta": {
                    "profile": [
                        "http://hl7.org/fhir/us/davinci-deqm/StructureDefinition/gaps-detectedissue-deqm"
                    ]
                },
                "status": "final",
                "code": {
                    "coding": [
                        {
                            "system": "http://terminology.hl7.org/CodeSystem/detectedissue-category",
                            "code": "care-gap",
                            "display": "Gap in Care Detected"
                        }
                    ]
                },
                "patient": {
                    "reference": "Patient/gaps-patient01"
                },
                "evidence": [
                    {
                        "detail": [
                            {
                                "reference": "MeasureReport/gaps-indv-measurereport02"
                            }
                        ]
                    }
                ]
            }
        },
        {
            "fullUrl": "Encounter/gaps-encounter01",
            "resource": {
                "resourceType": "Encounter",
                "id": "gaps-encounter01",
                "subject": {
                    "reference": "Patient/gaps-patient01"
                },
                "meta": {
                    "profile": [
                        "http://hl7.org/fhir/us/core/StructureDefinition/us-core-encounter"
                    ]
                },
                "status": "finished",
                "class": {
                    "system": "http://terminology.hl7.org/CodeSystem/v3-ActCode",
                    "code": "AMB",
                    "display": "ambulatory"
                },
                "type": [
                    {
                        "coding": [
                            {
                                "system": "http://www.ama-assn.org/go/cpt",
                                "code": "99201",
                                "display": "Office or other outpatient visit for the evaluation and management of a new patient, which requires these 3 key components: A problem focused history; A problem focused examination; Straightforward medical decision making. Counseling and/or coordination of care with other physicians, other qualified health care professionals, or agencies are provided consistent with the nature of the problem(s) and the patient's and/or family's needs. Usually, the presenting problem(s) are self limited or minor. Typically, 10 minutes are spent face-to-face with the patient and/or family."
                            }
                        ]
                    }
                ],
                "period": {
                    "start": "2019-05-30T00:00:00-00:00",
                    "end": "2019-05-31T00:00:00-00:00"
                }
            }
        },
        {
            "fullUrl": "Patient/gaps-patient01",
            "resource": {
                "resourceType": "Patient",
                "id": "gaps-patient01",
                "meta": {
                    "profile": [
                        "http://hl7.org/fhir/us/core/StructureDefinition/us-core-patient"
                    ]
                },
                "extension": [
                    {
                        "url": "http://hl7.org/fhir/us/core/StructureDefinition/us-core-race",
                        "extension": [
                            {
                                "url": "ombCategory",
                                "valueCoding": {
                                    "system": "urn:oid:2.16.840.1.113883.6.238",
                                    "code": "2028-9",
                                    "display": "Asian"
                                }
                            },
                            {
                                "url": "text",
                                "valueString": "Asian"
                            }
                        ]
                    },
                    {
                        "url": "http://hl7.org/fhir/us/core/StructureDefinition/us-core-ethnicity",
                        "extension": [
                            {
                                "url": "ombCategory",
                                "valueCoding": {
                                    "system": "urn:oid:2.16.840.1.113883.6.238",
                                    "code": "2135-2",
                                    "display": "Hispanic or Latino"
                                }
                            },
                            {
                                "url": "text",
                                "valueString": "Hispanic or Latino"
                            }
                        ]
                    }
                ],
                "identifier": [
                    {
                        "use": "usual",
                        "type": {
                            "coding": [
                                {
                                    "system": "http://terminology.hl7.org/CodeSystem/v2-0203",
                                    "code": "MR",
                                    "display": "Medical Record Number"
                                }
                            ]
                        },
                        "system": "http://hospital.smarthealthit.org",
                        "value": "999995992"
                    }
                ],
                "name": [
                    {
                        "family": "Bruce",
                        "given": [
                            "Parker"
                        ]
                    }
                ],
                "birthDate": "1965-01-01",
                "gender": "male"
            }
        },
        {
            "fullUrl": "Organization/gaps-organization-reportingvendor",
            "resource": {
                "id": "gaps-organization-reportingvendor",
                "meta": {
                    "profile": [
                        "http://hl7.org/fhir/us/davinci-deqm/StructureDefinition/organization-deqm"
                    ]
                },
                "active": true,
                "address": [
                    {
                        "city": "Whoville",
                        "country": "USA",
                        "line": [
                            "13 Dr Suess Street"
                        ],
                        "postalCode": "01101",
                        "state": "MA"
                    }
                ],
                "identifier": [
                    {
                        "assigner": {
                            "display": "www.irs.gov"
                        },
                        "system": "urn:oid:2.16.840.1.113883.4.4",
                        "type": {
                            "coding": [
                                {
                                    "code": "TAX",
                                    "display": "Tax ID number",
                                    "system": "http://terminology.hl7.org/CodeSystem/v2-0203"
                                }
                            ]
                        },
                        "use": "official",
                        "value": "123446789"
                    }
                ],
                "name": "GapsReportingVendor01",
                "telecom": [
                    {
                        "system": "phone",
                        "value": "(+1) 401-545-1212"
                    }
                ],
                "type": [
                    {
                        "coding": [
                            {
                                "code": "pay",
                                "display": "Payer",
                                "system": "http://terminology.hl7.org/CodeSystem/organization-type"
                            }
                        ]
                    }
                ],
                "resourceType": "Organization"
            }
        }
    ]
}