{
  "resourceType": "Bundle",
  "id": "single-gaps-closed-indv-report01",
  "meta": {
    "profile": [
      "http://hl7.org/fhir/us/davinci-deqm/StructureDefinition/gaps-bundle-deqm"
    ]
  },
  "identifier": {
    "system": "urn:ietf:rfc:3986",
    "value": "urn:uuid:f119bdf2-eeb9-47b2-8dc1-e2068cc3c4ae"
  },
  "type": "document",
  "timestamp": "2020-06-30T13:08:53+00:00",
  "entry": [
    {
      "fullUrl": "http://example.org/fhir/gaps/Composition/gaps-composition02",
      "resource": {
        "resourceType": "Composition",
        "id": "gaps-composition02",
        "meta": {
          "profile": [
            "http://hl7.org/fhir/us/davinci-deqm/StructureDefinition/gaps-composition-deqm"
          ]
        },
        "status": "final",
        "type": {
          "coding": [
            {
              "system": "http://loinc.org",
              "code": "96315-7",
              "display": "Gaps in care report"
            }
          ]
        },
        "subject": {
          "reference": "Patient/gaps-patient02"
        },
        "date": "2020-06-30T13:08:53+00:00",
        "author": [
          {
            "reference": "Organization/gaps-organization-reportingvendor"
          }
        ],
        "title": "Care Gap Report for patient gaps-patient02",
        "section": [
          {
            "title": "Colorectal Cancer Screening",
            "focus": {
              "reference": "MeasureReport/gaps-indv-measurereport03"
            },
            "entry": [
              {
                "reference": "DetectedIssue/gaps-detectedissue03"
              }
            ]
          }
        ]
      }
    },
    {
      "fullUrl": "http://example.org/fhir/gaps/DetectedIssue/gaps-detectedissue03",
      "resource": {
        "resourceType": "DetectedIssue",
        "id": "gaps-detectedissue03",
        "meta": {
          "profile": [
            "http://hl7.org/fhir/us/davinci-deqm/StructureDefinition/gaps-detectedissue-deqm"
          ]
        },
        "modifierExtension": [
          {
            "url": "http://hl7.org/fhir/us/davinci-deqm/StructureDefinition/extension-gapStatus",
            "valueCodeableConcept": {
              "coding": [
                {
                  "system": "http://hl7.org/fhir/us/davinci-deqm/CodeSystem/gaps-status",
                  "code": "closed-gap"
                }
              ]
            }
          }
        ],
        "status": "final",
        "code": {
          "coding": [
            {
              "system": "http://terminology.hl7.org/CodeSystem/v3-ActCode",
              "code": "CAREGAP",
              "display": "Care Gaps"
            }
          ]
        },
        "patient": {
          "reference": "Patient/gaps-patient02"
        },
        "evidence": [
          {
            "detail": [
              {
                "reference": "MeasureReport/gaps-indv-measurereport03"
              }
            ]
          }
        ]
      }
    },
    {
      "fullUrl": "http://example.org/fhir/gaps/MeasureReport/gaps-indv-measurereport03",
      "resource": {
        "resourceType": "MeasureReport",
        "id": "gaps-indv-measurereport03",
        "meta": {
          "profile": [
            "http://hl7.org/fhir/us/davinci-deqm/StructureDefinition/indv-measurereport-deqm"
          ]
        },
        "text": {
          "status": "extensions",
          "div": "<div xmlns=\"http://www.w3.org/1999/xhtml\"><p><b>Generated Narrative</b></p><p><b>DEQM Measure Scoring Extension</b>: <span title=\"Codes: {http://terminology.hl7.org/CodeSystem/measure-scoring proportion}\">Proportion</span></p><p><b>DEQM Certification Identifier Extension</b>: id: 0015HQN9BD3304E</p><p><b>DEQM Reporting Vendor Extension</b>: <a href=\"#Organization_gaps-organization-reportingvendor\">See above (Organization/gaps-organization-reportingvendor)</a></p><p><b>status</b>: complete</p><p><b>type</b>: individual</p><p><b>measure</b>: <a href=\"http://hl7.org/fhir/us/davinci-deqm/Measure/measure-exm130-example\">http://hl7.org/fhir/us/davinci-deqm/Measure/measure-exm130-example</a></p><p><b>subject</b>: <a href=\"#Patient_gaps-patient02\">See above (Patient/gaps-patient02)</a></p><p><b>date</b>: Jun 30, 2020, 7:08:52 AM</p><p><b>reporter</b>: <a href=\"Organization-organization01.html\">Generated Summary: Tax ID number: 123456789 (OFFICIAL); active; <span title=\"Codes: {http://terminology.hl7.org/CodeSystem/organization-type prov}\">Healthcare Provider</span>; name: DaVinciHospital01; Phone: (+1) 401-555-1212</a></p><p><b>period</b>: Dec 31, 2019, 5:00:00 PM --&gt; Dec 30, 2020, 5:00:00 PM</p><p><b>improvementNotation</b>: <span title=\"Codes: {http://terminology.hl7.org/CodeSystem/measure-improvement-notation increase}\">Increased score indicates improvement</span></p><blockquote><p><b>group</b></p><h3>Ids</h3><table class=\"grid\"><tr><td>-</td></tr><tr><td>*</td></tr></table><blockquote><p><b>population</b></p><p><b>code</b>: <span title=\"Codes: {http://terminology.hl7.org/CodeSystem/measure-population initial-population}\">Initial Population</span></p><p><b>count</b>: 1</p></blockquote><blockquote><p><b>population</b></p><p><b>code</b>: <span title=\"Codes: {http://terminology.hl7.org/CodeSystem/measure-population numerator}\">Numerator</span></p><p><b>count</b>: 1</p></blockquote><blockquote><p><b>population</b></p><p><b>code</b>: <span title=\"Codes: {http://terminology.hl7.org/CodeSystem/measure-population denominator}\">Denominator</span></p><p><b>count</b>: 1</p></blockquote><blockquote><p><b>population</b></p><p><b>code</b>: <span title=\"Codes: {http://terminology.hl7.org/CodeSystem/measure-population denominator-exclusion}\">Denominator Exclusion</span></p><p><b>count</b>: 0</p></blockquote><p><b>measureScore</b>: 1.0</p></blockquote><p><b>evaluatedResource</b>: </p><ul><li><a href=\"#Encounter_gaps-encounter02\">See above (Encounter/gaps-encounter02)</a></li><li><a href=\"#Patient_gaps-patient02\">See above (Patient/gaps-patient02)</a></li></ul></div>"
        },
        "extension": [
          {
            "url": "http://hl7.org/fhir/us/davinci-deqm/StructureDefinition/extension-measureScoring",
            "valueCodeableConcept": {
              "coding": [
                {
                  "system": "http://terminology.hl7.org/CodeSystem/measure-scoring",
                  "code": "proportion"
                }
              ]
            }
          },
          {
            "url": "http://hl7.org/fhir/us/davinci-deqm/StructureDefinition/extension-certificationIdentifier",
            "valueIdentifier": {
              "system": "urn:oid:2.16.840.1.113883.3.2074.1",
              "value": "0015HQN9BD3304E"
            }
          },
          {
            "url": "http://hl7.org/fhir/us/davinci-deqm/StructureDefinition/extension-reportingVendor",
            "valueReference": {
              "reference": "Organization/gaps-organization-reportingvendor"
            }
          }
        ],
        "status": "complete",
        "type": "individual",
        "measure": "http://hl7.org/fhir/us/davinci-deqm/Measure/measure-exm130-example",
        "subject": {
          "reference": "Patient/gaps-patient02"
        },
        "date": "2020-06-30T13:08:52+00:00",
        "reporter": {
          "reference": "Organization/organization01"
        },
        "period": {
          "start": "2020-01-01T00:00:00+00:00",
          "end": "2020-12-31T00:00:00+00:00"
        },
        "improvementNotation": {
          "coding": [
            {
              "system": "http://terminology.hl7.org/CodeSystem/measure-improvement-notation",
              "code": "increase"
            }
          ]
        },
        "group": [
          {
            "id": "group-exm130",
            "population": [
              {
                "code": {
                  "coding": [
                    {
                      "system": "http://terminology.hl7.org/CodeSystem/measure-population",
                      "code": "initial-population",
                      "display": "Initial Population"
                    }
                  ]
                },
                "count": 1
              },
              {
                "code": {
                  "coding": [
                    {
                      "system": "http://terminology.hl7.org/CodeSystem/measure-population",
                      "code": "numerator",
                      "display": "Numerator"
                    }
                  ]
                },
                "count": 1
              },
              {
                "code": {
                  "coding": [
                    {
                      "system": "http://terminology.hl7.org/CodeSystem/measure-population",
                      "code": "denominator",
                      "display": "Denominator"
                    }
                  ]
                },
                "count": 1
              },
              {
                "code": {
                  "coding": [
                    {
                      "system": "http://terminology.hl7.org/CodeSystem/measure-population",
                      "code": "denominator-exclusion",
                      "display": "Denominator Exclusion"
                    }
                  ]
                },
                "count": 0
              }
            ],
            "measureScore": {
              "value": 1.0
            }
          }
        ],
        "evaluatedResource": [
          {
            "extension": [
              {
                "url": "http://hl7.org/fhir/us/davinci-deqm/StructureDefinition/extension-populationReference",
                "valueString": "initial-population"
              }
            ],
            "reference": "Encounter/gaps-encounter02"
          },
          {
            "extension": [
              {
                "url": "http://hl7.org/fhir/us/davinci-deqm/StructureDefinition/extension-populationReference",
                "valueString": "initial-population"
              }
            ],
            "reference": "Patient/gaps-patient02"
          }
        ]
      }
    },
    {
      "fullUrl": "http://example.org/fhir/gaps/Encounter/gaps-encounter02",
      "resource": {
        "resourceType": "Encounter",
        "id": "gaps-encounter02",
        "meta": {
          "profile": [
            "http://hl7.org/fhir/us/qicore/StructureDefinition/qicore-encounter"
          ]
        },
        "status": "finished",
        "class": {
          "system": "http://terminology.hl7.org/CodeSystem/v3-ActCode",
          "code": "AMB",
          "display": "ambulatory"
        },
        "type": [
          {
            "coding": [
              {
                "system": "http://www.ama-assn.org/go/cpt",
                "code": "99201",
                "display": "Office or other outpatient visit for the evaluation and management of a new patient, which requires these 3 key components: A problem focused history; A problem focused examination; Straightforward medical decision making. Counseling and/or coordination of care with other physicians, other qualified health care professionals, or agencies are provided consistent with the nature of the problem(s) and the patient's and/or family's needs. Usually, the presenting problem(s) are self limited or minor. Typically, 10 minutes are spent face-to-face with the patient and/or family."
              }
            ]
          }
        ],
        "subject": {
          "reference": "Patient/gaps-patient02"
        },
        "period": {
          "start": "2020-03-05T07:00:00-00:00",
          "end": "2020-03-05T10:00:00-00:00"
        }
      }
    },
    {
      "fullUrl": "http://example.org/fhir/gaps/Procedure/gaps-procedure01",
      "resource": {
        "resourceType": "Procedure",
        "id": "gaps-procedure01",
        "meta": {
          "profile": [
            "http://hl7.org/fhir/us/qicore/StructureDefinition/qicore-procedure"
          ]
        },
        "status": "completed",
        "code": {
          "coding": [
            {
              "system": "http://www.ama-assn.org/go/cpt",
              "code": "44393",
              "display": "Colonoscopy through stoma; with ablation of tumor(s), polyp(s), or other lesion(s) not amenable to removal by hot biopsy forceps, bipolar cautery or snare technique"
            }
          ]
        },
        "subject": {
          "reference": "Patient/gaps-patient02"
        },
        "performedPeriod": {
          "start": "2018-09-10T08:00:00-00:00",
          "end": "2018-09-10T09:00:00-00:00"
        }
      }
    },
    {
      "fullUrl": "http://example.org/fhir/gaps/Patient/gaps-patient02",
      "resource": {
        "resourceType": "Patient",
        "id": "gaps-patient02",
        "meta": {
          "profile": [
            "http://hl7.org/fhir/us/qicore/StructureDefinition/qicore-patient"
          ]
        },
        "text": {
          "status": "extensions",
          "div": "<div xmlns=\"http://www.w3.org/1999/xhtml\"><p><b>Generated Narrative</b></p><blockquote><p><b>US Core Race Extension</b></p><h3>Urls</h3><table class=\"grid\"><tr><td>-</td></tr><tr><td>*</td></tr></table><p><b>value</b>: <span title=\"{urn:oid:2.16.840.1.113883.6.238 2028-9}\">Asian</span></p><h3>Urls</h3><table class=\"grid\"><tr><td>-</td></tr><tr><td>*</td></tr></table><p><b>value</b>: Asian</p></blockquote><blockquote><p><b>US Core Ethnicity Extension</b></p><h3>Urls</h3><table class=\"grid\"><tr><td>-</td></tr><tr><td>*</td></tr></table><p><b>value</b>: <span title=\"{urn:oid:2.16.840.1.113883.6.238 2135-2}\">Hispanic or Latino</span></p><h3>Urls</h3><table class=\"grid\"><tr><td>-</td></tr><tr><td>*</td></tr></table><p><b>value</b>: Hispanic or Latino</p></blockquote><p><b>identifier</b>: Medical Record Number: 999996992 (USUAL)</p><p><b>name</b>: Thomas Ludwich </p><p><b>gender</b>: male</p><p><b>birthDate</b>: 1957-01-01</p></div>"
        },
        "extension": [
          {
            "extension": [
              {
                "url": "ombCategory",
                "valueCoding": {
                  "system": "urn:oid:2.16.840.1.113883.6.238",
                  "code": "2028-9",
                  "display": "Asian"
                }
              },
              {
                "url": "text",
                "valueString": "Asian"
              }
            ],
            "url": "http://hl7.org/fhir/us/core/StructureDefinition/us-core-race"
          },
          {
            "extension": [
              {
                "url": "ombCategory",
                "valueCoding": {
                  "system": "urn:oid:2.16.840.1.113883.6.238",
                  "code": "2135-2",
                  "display": "Hispanic or Latino"
                }
              },
              {
                "url": "text",
                "valueString": "Hispanic or Latino"
              }
            ],
            "url": "http://hl7.org/fhir/us/core/StructureDefinition/us-core-ethnicity"
          }
        ],
        "identifier": [
          {
            "use": "usual",
            "type": {
              "coding": [
                {
                  "system": "http://terminology.hl7.org/CodeSystem/v2-0203",
                  "code": "MR",
                  "display": "Medical Record Number"
                }
              ]
            },
            "system": "http://hospital.smarthealthit.org",
            "value": "999996992"
          }
        ],
        "name": [
          {
            "family": "Ludwich",
            "given": [
              "Thomas"
            ]
          }
        ],
        "gender": "male",
        "birthDate": "1957-01-01"
      }
    },
    {
      "fullUrl": "http://example.org/fhir/gaps/Organization/gaps-organization-reportingvendor",
      "resource": {
        "resourceType": "Organization",
        "id": "gaps-organization-reportingvendor",
        "meta": {
          "profile": [
            "http://hl7.org/fhir/us/davinci-deqm/StructureDefinition/organization-deqm"
          ]
        },
        "identifier": [
          {
            "use": "official",
            "type": {
              "coding": [
                {
                  "system": "http://terminology.hl7.org/CodeSystem/v2-0203",
                  "code": "TAX",
                  "display": "Tax ID number"
                }
              ]
            },
            "system": "urn:oid:2.16.840.1.113883.4.4",
            "value": "123446789",
            "assigner": {
              "display": "www.irs.gov"
            }
          }
        ],
        "active": true,
        "type": [
          {
            "coding": [
              {
                "system": "http://terminology.hl7.org/CodeSystem/organization-type",
                "code": "pay",
                "display": "Payer"
              }
            ]
          }
        ],
        "name": "GapsReportingVendor01",
        "telecom": [
          {
            "system": "phone",
            "value": "(+1) 401-545-1212"
          }
        ],
        "address": [
          {
            "line": [
              "13 Drive Street"
            ],
            "city": "Cityplace",
            "state": "MA",
            "postalCode": "01101",
            "country": "USA"
          }
        ]
      }
    }
  ]
}
