{
    "resourceType": "Bundle",
    "id": "cfa709d6-9011-4619-a809-cdac55bc277e",
    "type": "document",
    "entry": [
        {
            "fullUrl": "Composition/gaps-composition01",
            "resource": {
                "resourceType": "Composition",
                "id": "gaps-composition01",
                "status": "final",
                "type": {
                    "coding": [
                        {
                            "system": "http://hl7.org/fhir/us/davinci-deqm/CodeSystem/gaps-doc-type",
                            "code": "gaps-doc",
                            "display": "Gaps in Care Report"
                        }
                    ]
                },
                "subject": {
                    "reference": "Patient/numer-EXM125-FHIR4"
                },
                "date": "2020-07-02T13:08:52+00:00",
                "author": [
                    {
                        "reference": "Organization/organization-datareporter"
                    }
                ],
                "title": "Care Gap Report for patient numer-EXM125-FHIR4",
                "section": [
                    {
                        "title": "Colorectal Cancer Screening",
                        "focus": {
                            "reference": "MeasureReport/gaps-indv-measurereport01"
                        },
                        "entry": [
                            {
                                "reference": "DetectedIssue/gaps-detectedissue01"
                            }
                        ]
                    },
                    {
                        "title": "Cervical Cancer Screening",
                        "focus": {
                            "reference": "MeasureReport/ac5d7aba-8a7d-4752-87d5-716cfc1cddce"
                        },
                        "entry": [
                            {
                                "reference": "DetectedIssue/1e91885e-2477-41ae-9390-0cf1bd4f2368"
                            }
                        ]
                    }
                ]
            }
        },
        {
            "fullUrl": "MeasureReport/gaps-indv-measurereport01",
            "resource": {
                "resourceType": "MeasureReport",
                "id": "gaps-indv-measurereport01",
                "meta": {
                    "profile": [
                        "http://hl7.org/fhir/us/davinci-deqm/StructureDefinition/gaps-indv-measurereport-deqm"
                    ]
                },
                "status": "complete",
                "type": "individual",
                "measure": "Measure/measure-EXM130-FHIR4-7.2.000",
                "subject": {
                    "reference": "Patient/numer-EXM125-FHIR4"
                },
                "date": "2020-07-02T13:08:52+00:00",
                "reporter": {
                    "reference": "Organization/organization-datareporter"
                },
                "period": {
                    "start": "2019-01-01T00:00:00+00:00",
                    "end": "2019-12-31T00:00:00+00:00"
                },
                "improvementNotation": {
                    "coding": [
                        {
                            "system": "http://terminology.hl7.org/CodeSystem/measure-improvement-notation",
                            "code": "increase"
                        }
                    ]
                },
                "group": [
                    {
                        "id": "group-1",
                        "population": [
                            {
                                "code": {
                                    "coding": [
                                        {
                                            "system": "http://terminology.hl7.org/CodeSystem/measure-population",
                                            "code": "initial-population",
                                            "display": "Initial Population"
                                        }
                                    ]
                                },
                                "count": 1
                            },
                            {
                                "code": {
                                    "coding": [
                                        {
                                            "system": "http://terminology.hl7.org/CodeSystem/measure-population",
                                            "code": "numerator",
                                            "display": "Numerator"
                                        }
                                    ]
                                },
                                "count": 0
                            },
                            {
                                "code": {
                                    "coding": [
                                        {
                                            "system": "http://terminology.hl7.org/CodeSystem/measure-population",
                                            "code": "denominator",
                                            "display": "Denominator"
                                        }
                                    ]
                                },
                                "count": 1
                            },
                            {
                                "code": {
                                    "coding": [
                                        {
                                            "system": "http://terminology.hl7.org/CodeSystem/measure-population",
                                            "code": "denominator-exclusion",
                                            "display": "Denominator Exclusion"
                                        }
                                    ]
                                },
                                "count": 0
                            }
                        ],
                        "measureScore": {
                            "value": 0.0
                        }
                    }
                ],
                "evaluatedResource": [
                    {
                        "reference": "Encounter/numer-EXM125-FHIR4-1",
                        "extension": [
                            {
                                "url": "http://hl7.org/fhir/us/davinci-deqm/StructureDefinition/extension-populationReference",
                                "extension": [
                                    {
                                        "valueCodeableConcept": {
                                            "coding": [
                                                {
                                                    "system": "http://terminology.hl7.org/CodeSystem/measure-population",
                                                    "code": "initial-population"
                                                }
                                            ]
                                        }
                                    }
                                ]
                            }
                        ]
                    },
                    {
                        "reference": "Patient/numer-EXM125-FHIR4",
                        "extension": [
                            {
                                "url": "http://hl7.org/fhir/us/davinci-deqm/StructureDefinition/extension-populationReference",
                                "extension": [
                                    {
                                        "valueCodeableConcept": {
                                            "coding": [
                                                {
                                                    "system": "http://terminology.hl7.org/CodeSystem/measure-population",
                                                    "code": "initial-population"
                                                }
                                            ]
                                        }
                                    }
                                ]
                            }
                        ]
                    }
                ]
            }
        },
        {
            "fullUrl": "MeasureReport/ac5d7aba-8a7d-4752-87d5-716cfc1cddce",
            "resource": {
                "resourceType": "MeasureReport",
                "id": "ac5d7aba-8a7d-4752-87d5-716cfc1cddce",
                "meta": {
                    "profile": [
                        "http://hl7.org/fhir/us/davinci-deqm/StructureDefinition/indv-measurereport-deqm"
                    ]
                },
                "status": "complete",
                "type": "individual",
                "measure": "Measure/measure-EXM124-FHIR4-8.2.000",
                "subject": {
                    "reference": "Patient/numer-EXM125-FHIR4"
                },
                "date": "2020-07-02T13:08:53+00:00",
                "reporter": {
                    "reference": "Organization/organization-datareporter"
                },
                "period": {
                    "start": "2019-01-01T00:00:00+00:00",
                    "end": "2019-12-31T00:00:00+00:00"
                },
                "improvementNotation": {
                    "coding": [
                        {
                            "system": "http://terminology.hl7.org/CodeSystem/measure-improvement-notation",
                            "code": "increase"
                        }
                    ]
                },
                "group": [
                    {
                        "id": "group-1",
                        "population": [
                            {
                                "code": {
                                    "coding": [
                                        {
                                            "system": "http://terminology.hl7.org/CodeSystem/measure-population",
                                            "code": "initial-population",
                                            "display": "Initial Population"
                                        }
                                    ]
                                },
                                "count": 1
                            },
                            {
                                "code": {
                                    "coding": [
                                        {
                                            "system": "http://terminology.hl7.org/CodeSystem/measure-population",
                                            "code": "numerator",
                                            "display": "Numerator"
                                        }
                                    ]
                                },
                                "count": 0
                            },
                            {
                                "code": {
                                    "coding": [
                                        {
                                            "system": "http://terminology.hl7.org/CodeSystem/measure-population",
                                            "code": "denominator",
                                            "display": "Denominator"
                                        }
                                    ]
                                },
                                "count": 1
                            },
                            {
                                "code": {
                                    "coding": [
                                        {
                                            "system": "http://terminology.hl7.org/CodeSystem/measure-population",
                                            "code": "denominator-exclusion",
                                            "display": "Denominator Exclusion"
                                        }
                                    ]
                                },
                                "count": 0
                            }
                        ],
                        "measureScore": {
                            "value": 0.0
                        }
                    }
                ],
                "evaluatedResource": [
                    {
                        "reference": "Encounter/numer-EXM125-FHIR4-1",
                        "extension": [
                            {
                                "url": "http://hl7.org/fhir/us/davinci-deqm/StructureDefinition/extension-populationReference",
                                "extension": [
                                    {
                                        "valueCodeableConcept": {
                                            "coding": [
                                                {
                                                    "system": "http://terminology.hl7.org/CodeSystem/measure-population",
                                                    "code": "initial-population"
                                                }
                                            ]
                                        }
                                    }
                                ]
                            }
                        ]
                    },
                    {
                        "reference": "Patient/numer-EXM125-FHIR4",
                        "extension": [
                            {
                                "url": "http://hl7.org/fhir/us/davinci-deqm/StructureDefinition/extension-populationReference",
                                "extension": [
                                    {
                                        "valueCodeableConcept": {
                                            "coding": [
                                                {
                                                    "system": "http://terminology.hl7.org/CodeSystem/measure-population",
                                                    "code": "initial-population"
                                                }
                                            ]
                                        }
                                    }
                                ]
                            }
                        ]
                    },
                    {
                        "reference": "Encounter/numer-EXM125-FHIR4-1",
                        "extension": [
                            {
                                "url": "http://hl7.org/fhir/us/davinci-deqm/StructureDefinition/extension-populationReference",
                                "extension": [
                                    {
                                        "valueCodeableConcept": {
                                            "coding": [
                                                {
                                                    "system": "http://terminology.hl7.org/CodeSystem/measure-population",
                                                    "code": "denominator"
                                                }
                                            ]
                                        }
                                    }
                                ]
                            }
                        ]
                    },
                    {
                        "reference": "Patient/numer-EXM125-FHIR4",
                        "extension": [
                            {
                                "url": "http://hl7.org/fhir/us/davinci-deqm/StructureDefinition/extension-populationReference",
                                "extension": [
                                    {
                                        "valueCodeableConcept": {
                                            "coding": [
                                                {
                                                    "system": "http://terminology.hl7.org/CodeSystem/measure-population",
                                                    "code": "denominator"
                                                }
                                            ]
                                        }
                                    }
                                ]
                            }
                        ]
                    }
                ]
            }
        },
        {
            "fullUrl": "DetectedIssue/gaps-detectedissue01",
            "resource": {
                "resourceType": "DetectedIssue",
                "id": "gaps-detectedissue01",
                "status": "final",
                "code": {
                    "coding": [
                        {
                            "system": "http://hl7.org/fhir/us/davinci-deqm/CodeSystem/detectedissue-category",
                            "code": "care-gap"
                        }
                    ]
                },
                "patient": {
                    "reference": "Patient/numer-EXM125-FHIR4"
                },
                "evidence": [
                    {
                        "detail": [
                            {
                                "reference": "MeasureReport/gaps-indv-measurereport01"
                            }
                        ]
                    }
                ]
            }
        },
        {
            "fullUrl": "DetectedIssue/1e91885e-2477-41ae-9390-0cf1bd4f2368",
            "resource": {
                "resourceType": "DetectedIssue",
                "id": "1e91885e-2477-41ae-9390-0cf1bd4f2368",
                "status": "final",
                "code": {
                    "coding": [
                        {
                            "system": "http://hl7.org/fhir/us/davinci-deqm/CodeSystem/detectedissue-category",
                            "code": "care-gap"
                        }
                    ]
                },
                "patient": {
                    "reference": "Patient/numer-EXM125-FHIR4"
                },
                "evidence": [
                    {
                        "detail": [
                            {
                                "reference": "MeasureReport/ac5d7aba-8a7d-4752-87d5-716cfc1cddce"
                            }
                        ]
                    }
                ]
            }
        },
        {
            "fullUrl": "Encounter/numer-EXM125-FHIR4-1",
            "resource": {
                "resourceType": "Encounter",
                "id": "numer-EXM125-FHIR4-1",
                "meta": {
                    "versionId": "1",
                    "lastUpdated": "2020-05-15T16:32:14.316+00:00",
                    "source": "#I5xWzqH3WlhNXoPj",
                    "profile": [
                        "http://hl7.org/fhir/us/core/StructureDefinition/us-core-encounter"
                    ]
                },
                "status": "finished",
                "class": {
                    "system": "http://terminology.hl7.org/CodeSystem/v3-ActCode",
                    "code": "AMB",
                    "display": "ambulatory"
                },
                "type": [
                    {
                        "coding": [
                            {
                                "system": "http://www.ama-assn.org/go/cpt",
                                "code": "99201",
                                "display": "Office or other outpatient visit for the evaluation and management of a new patient, which requires these 3 key components: A problem focused history; A problem focused examination; Straightforward medical decision making. Counseling and/or coordination of care with other physicians, other qualified health care professionals, or agencies are provided consistent with the nature of the problem(s) and the patient's and/or family's needs. Usually, the presenting problem(s) are self limited or minor. Typically, 10 minutes are spent face-to-face with the patient and/or family."
                            }
                        ]
                    }
                ],
                "subject": {
                    "reference": "Patient/numer-EXM125-FHIR4"
                },
                "period": {
                    "start": "2019-05-31T00:00:00-00:00",
                    "end": "2019-05-31T00:00:00-00:00"
                }
            }
        },
        {
            "fullUrl": "Patient/numer-EXM125-FHIR4",
            "resource": {
                "resourceType": "Patient",
                "id": "numer-EXM125-FHIR4",
                "meta": {
                    "versionId": "1",
                    "lastUpdated": "2020-05-15T16:32:14.316+00:00",
                    "source": "#I5xWzqH3WlhNXoPj",
                    "profile": [
                        "http://hl7.org/fhir/us/core/StructureDefinition/us-core-patient"
                    ]
                },
                "text": {
                    "status": "generated",
                    "div": "<div xmlns=\"http://www.w3.org/1999/xhtml\"><div class=\"hapiHeaderText\">Karen <b>MCCARREN </b></div><table class=\"hapiPropertyTable\"><tbody><tr><td>Identifier</td><td>999999995</td></tr><tr><td>Date of birth</td><td><span>01 January 1965</span></td></tr></tbody></table></div>"
                },
                "extension": [
                    {
                        "url": "http://hl7.org/fhir/us/core/StructureDefinition/us-core-race",
                        "extension": [
                            {
                                "url": "ombCategory",
                                "valueCoding": {
                                    "system": "urn:oid:2.16.840.1.113883.6.238",
                                    "code": "2028-9",
                                    "display": "Asian"
                                }
                            }
                        ]
                    },
                    {
                        "url": "http://hl7.org/fhir/us/core/StructureDefinition/us-core-ethnicity",
                        "extension": [
                            {
                                "url": "ombCategory",
                                "valueCoding": {
                                    "system": "urn:oid:2.16.840.1.113883.6.238",
                                    "code": "2135-2",
                                    "display": "Hispanic or Latino"
                                }
                            }
                        ]
                    }
                ],
                "identifier": [
                    {
                        "use": "usual",
                        "type": {
                            "coding": [
                                {
                                    "system": "http://terminology.hl7.org/CodeSystem/v2-0203",
                                    "code": "MR",
                                    "display": "Medical Record Number"
                                }
                            ]
                        },
                        "system": "http://hospital.smarthealthit.org",
                        "value": "999999995"
                    }
                ],
                "name": [
                    {
                        "family": "McCarren",
                        "given": [
                            "Karen"
                        ]
                    }
                ],
                "gender": "female",
                "birthDate": "1965-01-01"
            }
        }
    ]
}