{"resourceType":"Parameters","parameter":[{"name":"subject","valueReference":{"reference":"MeasureReport/datax-measurereport01"}}]}
{"resourceType":"MeasureReport","id":"datax-measurereport01","meta":{"source":"http://example.org/fhir/server","profile":["http://hl7.org/fhir/us/davinci-deqm/StructureDefinition/datax-measurereport-deqm"]},"extension":[{"url":"http://hl7.org/fhir/us/cqfmeasures/StructureDefinition/cqfm-softwaresystem","valueReference":{"reference":"Device/deqm-software-system-example"}},{"url":"http://hl7.org/fhir/us/davinci-deqm/StructureDefinition/extension-submitDataUpdateType","valueCode":"incremental"}],"status":"complete","type":"data-collection","measure":"http://hl7.org/fhir/us/davinci-deqm/Measure/measure-mrp-example","subject":{"reference":"Patient/patient01"},"date":"2018-09-05T16:59:52.404Z","reporter":{"reference":"Organization/organization01"},"period":{"start":"2018-08-01","end":"2018-09-01"},"evaluatedResource":[{"reference":"Task/task01"}]}
{"resourceType":"Patient","id":"patient01","meta":{"versionId":"5","lastUpdated":"2019-02-11T14:19:25.000+00:00","source":"http://example.org/fhir/server","profile":["http://hl7.org/fhir/us/qicore/StructureDefinition/qicore-patient"]},"text":{"status":"generated","div":"<div xmlns=\"http://www.w3.org/1999/xhtml\"><div class=\"hapiHeaderText\">Jairo <b>WEBSTER </b></div><table class=\"hapiPropertyTable\"><tbody><tr><td>Identifier</td><td>12345</td></tr><tr><td>Address</td><td><span>7496 Beaver Ridge Ave </span><br/><span>Thornton </span><span>NJ </span><span>USA </span></td></tr><tr><td>Date of birth</td><td><span>16 December 1946</span></td></tr></tbody></table></div>"},"extension":[{"url":"http://hl7.org/fhir/us/core/StructureDefinition/us-core-birthsex","valueCode":"M"},{"extension":[{"url":"ombCategory","valueCoding":{"system":"urn:oid:2.16.840.1.113883.6.238","code":"2106-3","display":"White"}},{"url":"text","valueString":"White"}],"url":"http://hl7.org/fhir/us/core/StructureDefinition/us-core-race"},{"extension":[{"url":"ombCategory","valueCoding":{"system":"urn:oid:2.16.840.1.113883.6.238","code":"2186-5","display":"Not Hispanic or Latino"}},{"url":"text","valueString":"Not Hispanic or Latino"}],"url":"http://hl7.org/fhir/us/core/StructureDefinition/us-core-ethnicity"}],"identifier":[{"use":"usual","type":{"coding":[{"system":"http://terminology.hl7.org/CodeSystem/v2-0203","code":"MR","display":"Medical record number"}]},"system":"http://hospital.davinci.org","value":"12345"}],"active":true,"name":[{"use":"official","family":"Webster","given":["Jairo"]}],"gender":"male","birthDate":"1946-12-16","deceasedBoolean":false,"address":[{"use":"home","line":["7496 Beaver Ridge Ave"],"city":"Thornton","state":"NJ","postalCode":"07003","country":"USA"}],"maritalStatus":{"coding":[{"system":"http://terminology.hl7.org/CodeSystem/v3-MaritalStatus","code":"M","display":"Married"}]},"communication":[{"language":{"coding":[{"system":"urn:ietf:bcp:47","code":"en-US","display":"English (Region=United States)"}]},"preferred":true}],"managingOrganization":{"reference":"Organization/organization01"}}
{"resourceType":"Task","id":"Task01","meta":{"source":"http://example.org/fhir/server","profile":["http://hl7.org/fhir/us/qicore/StructureDefinition/qicore-task"]},"identifier":[{"system":"http://example.org/tasks","value":"19009"}],"status":"completed","intent":"plan","priority":"routine","code":{"coding":[{"system":"http://hl7.org/fhir/CodeSystem/task-code","code":"fulfill","display":"Fulfill the focal request"}]},"for":{"reference":"Patient/patient01"},"encounter":{"reference":"Encounter/encounter01"},"executionPeriod":{"start":"2017-06-11","end":"2017-06-11"},"authoredOn":"2018-09-25T14:24:23.584Z","owner":{"reference":"Practitioner/practitioner01"}}
{"resourceType":"Encounter","id":"encounter01","meta":{"source":"http://example.org/fhir/server","profile":["http://hl7.org/fhir/us/qicore/StructureDefinition/qicore-encounter"]},"status":"finished","class":{"system":"http://terminology.hl7.org/CodeSystem/v3-ActCode","code":"IMP","display":"inpatient encounter"},"type":[{"coding":[{"system":"http://snomed.info/sct","code":"56876005","display":"Drug rehabilitation and detoxification"}]}],"subject":{"reference":"Patient/patient01","display":"Jairo Webster"},"period":{"start":"2018-05-29T11:00:00-04:00","end":"2018-05-29T11:00:00-04:00"},"hospitalization":{"dischargeDisposition":{"coding":[{"system":"http://terminology.hl7.org/CodeSystem/discharge-disposition","code":"home","display":"Home"}]}}}
{"resourceType":"Coverage","id":"coverage01","meta":{"versionId":"2","lastUpdated":"2019-02-11T14:19:25.000+00:00","source":"http://example.org/fhir/server","profile":["http://hl7.org/fhir/us/qicore/StructureDefinition/qicore-coverage"]},"status":"active","policyHolder":{"reference":"Patient/patient01"},"subscriber":{"reference":"Patient/patient01"},"subscriberId":"A123456789","beneficiary":{"reference":"Patient/patient01"},"relationship":{"coding":[{"system":"http://terminology.hl7.org/CodeSystem/subscriber-relationship","code":"self"}]},"payor":[{"reference":"Organization/organization04"}]}